Time,Device name,Chip Time(),Acceleration X(g),Acceleration Y(g),Acceleration Z(g),Angular velocity X(°/s),Angular velocity Y(°/s),Angular velocity Z(°/s),ShiftX(mm),ShiftY(mm),ShiftZ(mm),SpeedX(mm/s),SpeedY(mm/s),SpeedZ(mm/s),Angle X(°),Angle Y(°),Angle Z(°),Magnetic field X(ʯt),Magnetic field Y(ʯt),Magnetic field Z(ʯt),Temperature(℃),Quaternions 0(),Quaternions 1(),Quaternions 2(),Quaternions 3(),Raw power(),Power Percent(%)()
 19:46:20.783,e8:da:bf:c6:3e:4f, 2015-01-01 01:04:19.105, 0.037, 0.007, -0.978, 0, 0.244, 2.014, , , , , , , 179.764, -0.769, -128.309, -78.300, 13.100, -69.807, 20.5, 0.00626, 0.43564, -0.90002, -0.00125, 406, 100,
 19:46:20.801,e8:da:bf:c6:3e:4f, 2015-01-01 01:04:19.465, 0.054, 0.007, -0.979, 0.061, 0.183, 1.587, , , , , , , 179.764, -0.775, -128.331, -78.300, 13.100, -69.807, 20.5, 0.00626, 0.43564, -0.90002, -0.00125, 406, 100,
 19:46:20.801,e8:da:bf:c6:3e:4f, 2015-01-01 01:04:19.465, 0.061, 0.008, -0.984, 0, 0.061, 0.854, , , , , , , 179.764, -0.775, -128.342, -78.300, 13.100, -69.807, 20.5, 0.00626, 0.43564, -0.90002, -0.00125, 406, 100,
 19:46:20.801,e8:da:bf:c6:3e:4f, 2015-01-01 01:04:19.465, 0.061, 0.009, -0.985, 0, 0, 0.122, , , , , , , 179.764, -0.775, -128.348, -78.300, 13.100, -69.807, 20.5, 0.00626, 0.43564, -0.90002, -0.00125, 406, 100,
 19:46:20.836,e8:da:bf:c6:3e:4f, 2015-01-01 01:04:19.465, 0.05, 0.009, -0.979, 0, -0.122, -0.671, , , , , , , 179.764, -0.775, -128.348, -78.300, 13.100, -69.807, 20.5, 0.00626, 0.43564, -0.90002, -0.00125, 406, 100,
 19:46:20.836,e8:da:bf:c6:3e:4f, 2015-01-01 01:04:19.465, 0.035, 0.008, -0.977, 0, -0.183, -1.282, , , , , , , 179.764, -0.775, -128.342, -78.300, 13.100, -69.807, 20.5, 0.00626, 0.43564, -0.90002, -0.00125, 406, 100,
 19:46:20.837,e8:da:bf:c6:3e:4f, 2015-01-01 01:04:19.465, 0.017, 0.008, -0.981, 0, -0.183, -1.648, , , , , , , 179.764, -0.775, -128.326, -78.300, 13.100, -69.807, 20.5, 0.00626, 0.43564, -0.90002, -0.00125, 406, 100,
 19:46:20.837,e8:da:bf:c6:3e:4f, 2015-01-01 01:04:19.465, 0.003, 0.008, -0.985, 0, -0.122, -1.648, , , , , , , 179.764, -0.769, -128.309, -78.300, 13.100, -69.807, 20.5, 0.00626, 0.43564, -0.90002, -0.00125, 406, 100,
 19:46:20.837,e8:da:bf:c6:3e:4f, 2015-01-01 01:04:19.465, 0.004, 0.008, -0.983, 0, 0, -1.343, , , , , , , 179.758, -0.769, -128.298, -78.300, 13.100, -69.807, 20.5, 0.00626, 0.43564, -0.90002, -0.00125, 406, 100,
 19:46:20.837,e8:da:bf:c6:3e:4f, 2015-01-01 01:04:19.465, 0.027, 0.006, -0.979, 0, 0.61, -0.916, , , , , , , 179.758, -0.775, -128.287, -78.300, 13.100, -69.807, 20.5, 0.00626, 0.43564, -0.90002, -0.00125, 406, 100,
 19:46:20.837,e8:da:bf:c6:3e:4f, 2015-01-01 01:04:19.465, 0.102, 0.006, -0.979, 0.061, 0.854, 0.061, , , , , , , 179.764, -0.78, -128.287, -78.300, 13.100, -69.807, 20.5, 0.00626, 0.43564, -0.90002, -0.00125, 406, 100,
 19:46:20.837,e8:da:bf:c6:3e:4f, 2015-01-01 01:04:19.465, 0.221, 0.008, -0.985, 0.061, 0.549, 0, , , , , , , 179.764, -0.791, -128.293, -78.300, 13.100, -69.807, 20.5, 0.00626, 0.43564, -0.90002, -0.00125, 406, 100,
 19:46:20.854,e8:da:bf:c6:3e:4f, 2015-01-01 01:04:19.465, 0.201, 0.015, -0.988, -0.061, -0.305, -6.104, , , , , , , 179.764, -0.791, -128.26, -78.300, 13.100, -69.807, 20.5, 0.00626, 0.43564, -0.90002, -0.00125, 406, 100,
 19:46:20.854,e8:da:bf:c6:3e:4f, 2015-01-01 01:04:19.465, 0.084, 0.014, -0.982, -0.122, -1.221, -10.437, , , , , , , 179.758, -0.78, -128.172, -78.300, 13.100, -69.807, 20.5, 0.00626, 0.43564, -0.90002, -0.00125, 406, 100,
 19:46:20.854,e8:da:bf:c6:3e:4f, 2015-01-01 01:04:19.465, -0.025, 0.008, -0.971, 0, -0.977, -11.047, , , , , , , 179.758, -0.769, -128.068, -78.300, 13.100, -69.807, 20.5, 0.00626, 0.43564, -0.90002, -0.00125, 406, 100,
 19:46:20.854,e8:da:bf:c6:3e:4f, 2015-01-01 01:04:19.465, -0.069, 0.004, -0.97, 0.122, -0.061, -9.827, , , , , , , 179.758, -0.764, -127.963, -78.300, 13.100, -69.807, 20.5, 0.00626, 0.43564, -0.90002, -0.00125, 406, 100,
 19:46:20.902,e8:da:bf:c6:3e:4f, 2015-01-01 01:04:19.465, -0.024, 0.003, -0.982, 0.122, 0.671, -7.385, , , , , , , 179.758, -0.764, -127.881, -78.300, 13.100, -69.807, 20.5, 0.00626, 0.43564, -0.90002, -0.00125, 406, 100,
 19:46:20.902,e8:da:bf:c6:3e:4f, 2015-01-01 01:04:19.465, 0.082, 0.005, -0.993, 0, 1.099, -5.92, , , , , , , 179.758, -0.775, -127.815, -78.300, 13.100, -69.807, 20.5, 0.00626, 0.43564, -0.90002, -0.00125, 406, 100,
 19:46:20.902,e8:da:bf:c6:3e:4f, 2015-01-01 01:04:19.465, 0.153, 0.009, -0.99, -0.061, 0.549, -7.629, , , , , , , 179.758, -0.786, -127.755, -78.300, 13.100, -69.807, 20.5, 0.00626, 0.43564, -0.90002, -0.00125, 406, 100,
 19:46:20.902,e8:da:bf:c6:3e:4f, 2015-01-01 01:04:19.465, 0.087, 0.011, -0.976, 0, -0.671, -11.536, , , , , , , 179.753, -0.78, -127.656, -78.300, 13.100, -69.807, 20.5, 0.00626, 0.43564, -0.90002, -0.00125, 406, 100,
 19:46:20.902,e8:da:bf:c6:3e:4f, 2015-01-01 01:04:19.465, -0.013, 0.007, -0.968, 0.061, -1.099, -13.062, , , , , , , 179.753, -0.769, -127.529, -78.300, 13.100, -69.807, 20.5, 0.00626, 0.43564, -0.90002, -0.00125, 406, 100,
 19:46:20.902,e8:da:bf:c6:3e:4f, 2015-01-01 01:04:19.465, -0.056, 0.005, -0.975, 0.183, -0.183, -11.475, , , , , , , 179.753, -0.764, -127.408, -78.300, 13.100, -69.807, 20.5, 0.00626, 0.43564, -0.90002, -0.00125, 406, 100,
 19:46:20.902,e8:da:bf:c6:3e:4f, 2015-01-01 01:04:19.465, -0.057, 0.005, -0.988, 0.061, -0.183, -10.132, , , , , , , 179.753, -0.764, -127.304, -78.300, 13.100, -69.807, 20.5, 0.00626, 0.43564, -0.90002, -0.00125, 406, 100,
 19:46:20.902,e8:da:bf:c6:3e:4f, 2015-01-01 01:04:19.465, -0.063, 0.005, -0.988, 0, 0, -9.888, , , , , , , 179.753, -0.758, -127.205, -78.300, 13.100, -69.807, 20.5, 0.00626, 0.43564, -0.90002, -0.00125, 406, 100,
 19:46:21.081,e8:da:bf:c6:3e:4f, 2015-01-01 01:04:19.465, -0.056, 0.003, -0.981, 0, 0, -8.301, , , , , , , 179.753, -0.758, -127.117, -78.300, 13.100, -69.807, 20.5, 0.00626, 0.43564, -0.90002, -0.00125, 406, 100,
 19:46:21.128,e8:da:bf:c6:3e:4f, 2015-01-01 01:04:19.465, -0.062, 0.003, -0.977, 0.122, -0.122, -7.629, , , , , , , 179.753, -0.758, -127.04, -78.300, 13.100, -69.807, 20.5, 0.00653, 0.43881, -0.8985, -0.00116, 406, 100,
 19:46:21.128,e8:da:bf:c6:3e:4f, 2015-01-01 01:04:19.465, -0.065, 0.005, -0.982, 0, -0.183, -6.653, , , , , , , 179.753, -0.758, -126.969, -78.300, 13.100, -69.807, 20.5, 0.00653, 0.43881, -0.8985, -0.00116, 406, 100,
 19:46:21.128,e8:da:bf:c6:3e:4f, 2015-01-01 01:04:19.465, -0.077, 0.007, -0.982, 0, -1.099, -6.836, , , , , , , 179.753, -0.753, -126.909, -78.300, 13.100, -69.807, 20.5, 0.00653, 0.43881, -0.8985, -0.00116, 406, 100,
 19:46:21.144,e8:da:bf:c6:3e:4f, 2015-01-01 01:04:19.820, -0.267, 0.01, -0.974, 0.061, -1.526, -10.437, , , , , , , 179.753, -0.736, -126.821, -78.300, 13.100, -69.807, 20.5, 0.00653, 0.43881, -0.8985, -0.00116, 406, 100,
 19:46:21.144,e8:da:bf:c6:3e:4f, 2015-01-01 01:04:19.820, -0.475, 0, -0.974, -0.122, 0, -5.737, , , , , , , 179.753, -0.725, -126.727, -78.300, 13.100, -69.807, 20.5, 0.00653, 0.43881, -0.8985, -0.00116, 406, 100,
 19:46:21.144,e8:da:bf:c6:3e:4f, 2015-01-01 01:04:19.820, -0.381, -0.011, -0.987, 0.122, 0.427, 9.766, , , , , , , 179.753, -0.731, -126.766, -78.300, 13.100, -69.807, 20.5, 0.00653, 0.43881, -0.8985, -0.00116, 406, 100,
 19:46:21.144,e8:da:bf:c6:3e:4f, 2015-01-01 01:04:19.820, -0.288, -0.005, -0.994, -0.244, 1.648, 11.658, , , , , , , 179.753, -0.742, -126.876, -78.300, 13.100, -69.807, 20.5, 0.00653, 0.43881, -0.8985, -0.00116, 406, 100,
 19:46:21.144,e8:da:bf:c6:3e:4f, 2015-01-01 01:04:19.820, -0.089, -0.005, -0.985, -0.061, 2.747, 19.287, , , , , , , 179.753, -0.769, -127.035, -78.300, 13.100, -69.807, 20.5, 0.00653, 0.43881, -0.8985, -0.00116, 406, 100,
 19:46:21.144,e8:da:bf:c6:3e:4f, 2015-01-01 01:04:19.820, 0.047, 0.002, -0.989, -0.305, 1.16, 19.958, , , , , , , 179.753, -0.791, -127.238, -78.300, 13.100, -69.807, 20.5, 0.00653, 0.43881, -0.8985, -0.00116, 406, 100,
 19:46:21.145,e8:da:bf:c6:3e:4f, 2015-01-01 01:04:19.820, 0.085, 0.007, -0.986, -0.366, 0.366, 18.25, , , , , , , 179.747, -0.797, -127.436, -78.300, 13.100, -69.807, 20.5, 0.00653, 0.43881, -0.8985, -0.00116, 406, 100,
 19:46:21.145,e8:da:bf:c6:3e:4f, 2015-01-01 01:04:19.820, 0.085, 0.006, -0.965, -0.061, -0.488, 16.846, , , , , , , 179.747, -0.797, -127.612, -78.300, 13.100, -69.807, 20.5, 0.00653, 0.43881, -0.8985, -0.00116, 406, 100,
 19:46:21.145,e8:da:bf:c6:3e:4f, 2015-01-01 01:04:19.820, 0.084, 0.004, -0.954, 0.183, 0.183, 15.625, , , , , , , 179.753, -0.797, -127.776, -78.300, 13.100, -69.807, 20.5, 0.00653, 0.43881, -0.8985, -0.00116, 406, 100,
 19:46:21.145,e8:da:bf:c6:3e:4f, 2015-01-01 01:04:19.820, 0.143, 0.004, -0.976, 0.183, 1.16, 15.808, , , , , , , 179.753, -0.807, -127.93, -78.300, 13.100, -69.807, 20.5, 0.00653, 0.43881, -0.8985, -0.00116, 406, 100,
 19:46:21.145,e8:da:bf:c6:3e:4f, 2015-01-01 01:04:19.820, 0.28, 0.008, -1.002, -0.061, 0.916, 15.686, , , , , , , 179.758, -0.818, -128.095, -78.300, 13.100, -69.807, 20.5, 0.00653, 0.43881, -0.8985, -0.00116, 406, 100,
 19:46:21.145,e8:da:bf:c6:3e:4f, 2015-01-01 01:04:19.820, 0.406, 0.014, -0.997, -0.122, 0.305, 10.864, , , , , , , 179.758, -0.829, -128.232, -78.300, 13.100, -69.807, 20.5, 0.00653, 0.43881, -0.8985, -0.00116, 406, 100,
 19:46:21.145,e8:da:bf:c6:3e:4f, 2015-01-01 01:04:19.820, 0.393, 0.018, -0.97, 0, 0, 1.831, , , , , , , 179.758, -0.829, -128.293, -78.300, 13.100, -69.807, 20.5, 0.00653, 0.43881, -0.8985, -0.00116, 406, 100,
 19:46:21.145,e8:da:bf:c6:3e:4f, 2015-01-01 01:04:19.820, 0.334, 0.016, -0.964, 0.244, -0.488, -3.357, , , , , , , 179.758, -0.824, -128.282, -78.300, 13.100, -69.807, 20.5, 0.00653, 0.43881, -0.8985, -0.00116, 406, 100,
 19:46:21.146,e8:da:bf:c6:3e:4f, 2015-01-01 01:04:19.820, 0.208, 0.017, -0.981, 0.122, -1.221, -8.423, , , , , , , 179.758, -0.818, -128.221, -78.300, 13.100, -69.807, 20.5, 0.00653, 0.43881, -0.8985, -0.00116, 406, 100,
 19:46:21.146,e8:da:bf:c6:3e:4f, 2015-01-01 01:04:19.820, 0.093, 0.014, -0.992, -0.061, -1.648, -11.963, , , , , , , 179.758, -0.802, -128.117, -78.300, 13.100, -69.807, 20.5, 0.00653, 0.43881, -0.8985, -0.00116, 406, 100,
 19:46:21.146,e8:da:bf:c6:3e:4f, 2015-01-01 01:04:19.820, 0.008, 0.008, -0.982, 0, -0.916, -13.184, , , , , , , 179.758, -0.786, -127.991, -78.300, 13.100, -69.807, 20.5, 0.00653, 0.43881, -0.8985, -0.00116, 406, 100,
 19:46:21.146,e8:da:bf:c6:3e:4f, 2015-01-01 01:04:19.820, -0.045, 0.003, -0.972, 0.122, -0.427, -12.878, , , , , , , 179.758, -0.78, -127.864, -78.300, 13.100, -69.807, 20.5, 0.00653, 0.43881, -0.8985, -0.00116, 406, 100,
 19:46:21.146,e8:da:bf:c6:3e:4f, 2015-01-01 01:04:19.820, -0.052, 0.001, -0.982, 0.122, -0.427, -10.803, , , , , , , 179.758, -0.775, -127.744, -78.300, 13.100, -69.807, 20.5, 0.00653, 0.43881, -0.8985, -0.00116, 406, 100,
 19:46:21.146,e8:da:bf:c6:3e:4f, 2015-01-01 01:04:19.820, -0.057, 0.005, -0.997, -0.122, -0.183, -9.583, , , , , , , 179.758, -0.769, -127.65, -78.300, 13.100, -69.807, 20.5, 0.00653, 0.43881, -0.8985, -0.00116, 406, 100,
 19:46:21.240,e8:da:bf:c6:3e:4f, 2015-01-01 01:04:19.820, -0.059, 0.006, -0.99, -0.183, 0, -8.667, , , , , , , 179.753, -0.769, -127.557, -78.300, 13.100, -69.807, 20.5, 0.00653, 0.43881, -0.8985, -0.00116, 406, 100,
 19:46:21.240,e8:da:bf:c6:3e:4f, 2015-01-01 01:04:19.820, -0.056, 0.005, -0.967, 0, 0, -7.507, , , , , , , 179.753, -0.769, -127.48, -78.300, 13.100, -69.807, 20.5, 0.00653, 0.43881, -0.8985, -0.00116, 406, 100,
 19:46:21.240,e8:da:bf:c6:3e:4f, 2015-01-01 01:04:19.820, -0.061, 0.004, -0.958, 0.305, -0.305, -6.958, , , , , , , 179.753, -0.769, -127.408, -78.300, 13.100, -69.807, 20.5, 0.00653, 0.43881, -0.8985, -0.00116, 406, 100,
 19:46:21.240,e8:da:bf:c6:3e:4f, 2015-01-01 01:04:19.820, -0.073, 0.005, -0.978, 0.244, -0.366, -6.836, , , , , , , 179.753, -0.764, -127.343, -78.300, 13.100, -69.807, 20.5, 0.00653, 0.43881, -0.8985, -0.00116, 406, 100,
 19:46:21.321,e8:da:bf:c6:3e:4f, 2015-01-01 01:04:19.820, -0.104, 0.007, -1, -0.061, -0.122, -7.263, , , , , , , 179.753, -0.764, -127.271, -78.300, 13.100, -69.807, 20.5, 0.00653, 0.43881, -0.8985, -0.00116, 406, 100,
 19:46:21.573,e8:da:bf:c6:3e:4f, 2015-01-01 01:04:19.820, -0.157, 0.005, -0.998, -0.244, 0.122, -6.042, , , , , , , 179.753, -0.764, -127.205, -78.300, 13.100, -69.807, 20.5, 0.00653, 0.43881, -0.8985, -0.00116, 406, 100,
 19:46:21.599,e8:da:bf:c6:3e:4f, 2015-01-01 01:04:20.180, -0.129, 0, -0.976, 0, 0.183, -0.977, , , , , , , 179.753, -0.764, -127.172, -78.300, 13.100, -69.807, 20.5, 0.00647, 0.4408, -0.89752, -0.00122, 406, 100,
 19:46:21.599,e8:da:bf:c6:3e:4f, 2015-01-01 01:04:20.180, -0.076, 0.002, -0.966, 0.122, 0.183, 1.831, , , , , , , 179.753, -0.764, -127.183, -78.300, 13.100, -69.807, 20.5, 0.00647, 0.4408, -0.89752, -0.00122, 406, 100,
 19:46:21.615,e8:da:bf:c6:3e:4f, 2015-01-01 01:04:20.180, -0.04, 0.006, -0.977, 0.061, 0.305, 2.563, , , , , , , 179.753, -0.769, -127.211, -78.300, 13.100, -69.807, 20.5, 0.00647, 0.4408, -0.89752, -0.00122, 406, 100,
 19:46:21.615,e8:da:bf:c6:3e:4f, 2015-01-01 01:04:20.180, -0.007, 0.008, -0.993, -0.061, 0.244, 3.601, , , , , , , 179.753, -0.775, -127.244, -78.300, 13.100, -69.807, 20.5, 0.00647, 0.4408, -0.89752, -0.00122, 406, 100,
 19:46:21.615,e8:da:bf:c6:3e:4f, 2015-01-01 01:04:20.180, 0, 0.007, -0.987, -0.122, 0.122, 3.418, , , , , , , 179.753, -0.775, -127.282, -78.300, 13.100, -69.807, 20.5, 0.00647, 0.4408, -0.89752, -0.00122, 406, 100,
 19:46:21.615,e8:da:bf:c6:3e:4f, 2015-01-01 01:04:20.180, 0.007, 0.004, -0.969, 0.061, 0.122, 3.845, , , , , , , 179.753, -0.78, -127.321, -78.300, 13.100, -69.807, 20.5, 0.00647, 0.4408, -0.89752, -0.00122, 406, 100,
 19:46:21.615,e8:da:bf:c6:3e:4f, 2015-01-01 01:04:20.180, 0.013, 0.006, -0.974, 0.122, 0.061, 3.723, , , , , , , 179.753, -0.78, -127.359, -78.300, 13.100, -69.807, 20.5, 0.00647, 0.4408, -0.89752, -0.00122, 406, 100,
 19:46:21.615,e8:da:bf:c6:3e:4f, 2015-01-01 01:04:20.180, 0.016, 0.009, -0.99, 0, 0.061, 3.601, , , , , , , 179.753, -0.78, -127.397, -78.300, 13.100, -69.807, 20.5, 0.00647, 0.4408, -0.89752, -0.00122, 406, 100,
 19:46:21.615,e8:da:bf:c6:3e:4f, 2015-01-01 01:04:20.180, 0.018, 0.01, -0.991, -0.122, 0.061, 3.54, , , , , , , 179.753, -0.78, -127.436, -78.300, 13.100, -69.807, 20.5, 0.00647, 0.4408, -0.89752, -0.00122, 406, 100,
 19:46:21.616,e8:da:bf:c6:3e:4f, 2015-01-01 01:04:20.180, 0.027, 0.008, -0.978, -0.061, 0.183, 3.662, , , , , , , 179.753, -0.786, -127.474, -78.300, 13.100, -69.807, 20.5, 0.00647, 0.4408, -0.89752, -0.00122, 406, 100,
 19:46:21.616,e8:da:bf:c6:3e:4f, 2015-01-01 01:04:20.180, 0.034, 0.006, -0.97, 0.061, 0.061, 3.479, , , , , , , 179.753, -0.786, -127.513, -78.300, 13.100, -69.807, 20.5, 0.00647, 0.4408, -0.89752, -0.00122, 406, 100,
 19:46:21.616,e8:da:bf:c6:3e:4f, 2015-01-01 01:04:20.180, 0.036, 0.007, -0.979, 0.061, 0.061, 2.93, , , , , , , 179.753, -0.786, -127.546, -78.300, 13.100, -69.807, 20.5, 0.00647, 0.4408, -0.89752, -0.00122, 406, 100,
 19:46:21.616,e8:da:bf:c6:3e:4f, 2015-01-01 01:04:20.180, 0.037, 0.008, -0.992, -0.122, 0, 2.625, , , , , , , 179.753, -0.791, -127.579, -78.300, 13.100, -69.807, 20.5, 0.00647, 0.4408, -0.89752, -0.00122, 406, 100,
 19:46:21.616,e8:da:bf:c6:3e:4f, 2015-01-01 01:04:20.180, 0.037, 0.008, -0.989, -0.183, 0, 2.197, , , , , , , 179.753, -0.791, -127.601, -78.300, 13.100, -69.807, 20.5, 0.00647, 0.4408, -0.89752, -0.00122, 406, 100,
 19:46:21.616,e8:da:bf:c6:3e:4f, 2015-01-01 01:04:20.180, 0.039, 0.007, -0.974, 0, 0.061, 1.892, , , , , , , 179.753, -0.791, -127.623, -78.300, 13.100, -69.807, 20.5, 0.00647, 0.4408, -0.89752, -0.00122, 406, 100,
 19:46:21.616,e8:da:bf:c6:3e:4f, 2015-01-01 01:04:20.180, 0.042, 0.007, -0.97, 0.061, 0.061, 1.648, , , , , , , 179.753, -0.791, -127.645, -78.300, 13.100, -69.807, 20.5, 0.00647, 0.4408, -0.89752, -0.00122, 406, 100,
 19:46:21.616,e8:da:bf:c6:3e:4f, 2015-01-01 01:04:20.180, 0.045, 0.008, -0.979, 0, 0, 1.221, , , , , , , 179.753, -0.791, -127.661, -78.300, 13.100, -69.807, 20.5, 0.00647, 0.4408, -0.89752, -0.00122, 406, 100,
 19:46:21.616,e8:da:bf:c6:3e:4f, 2015-01-01 01:04:20.180, 0.047, 0.009, -0.988, -0.061, 0, 0.732, , , , , , , 179.753, -0.791, -127.672, -78.300, 13.100, -69.807, 20.5, 0.00647, 0.4408, -0.89752, -0.00122, 406, 100,
 19:46:21.616,e8:da:bf:c6:3e:4f, 2015-01-01 01:04:20.180, 0.043, 0.008, -0.984, -0.061, 0, 0.122, , , , , , , 179.753, -0.791, -127.678, -78.300, 13.100, -69.807, 20.5, 0.00647, 0.4408, -0.89752, -0.00122, 406, 100,
 19:46:21.617,e8:da:bf:c6:3e:4f, 2015-01-01 01:04:20.180, 0.037, 0.008, -0.976, 0, 0, -0.427, , , , , , , 179.753, -0.791, -127.678, -78.300, 13.100, -69.807, 20.5, 0.00647, 0.4408, -0.89752, -0.00122, 406, 100,
 19:46:21.617,e8:da:bf:c6:3e:4f, 2015-01-01 01:04:20.180, 0.033, 0.008, -0.977, 0.061, 0, -0.732, , , , , , , 179.753, -0.791, -127.672, -78.300, 13.100, -69.807, 20.5, 0.00647, 0.4408, -0.89752, -0.00122, 406, 100,
 19:46:21.617,e8:da:bf:c6:3e:4f, 2015-01-01 01:04:20.180, 0.031, 0.009, -0.985, 0, -0.061, -1.038, , , , , , , 179.753, -0.791, -127.667, -78.300, 13.100, -69.807, 20.5, 0.00647, 0.4408, -0.89752, -0.00122, 406, 100,
 19:46:21.617,e8:da:bf:c6:3e:4f, 2015-01-01 01:04:20.180, 0.029, 0.009, -0.984, 0, 0, -1.343, , , , , , , 179.753, -0.791, -127.656, -78.300, 13.100, -69.807, 20.5, 0.00647, 0.4408, -0.89752, -0.00122, 406, 100,
 19:46:21.617,e8:da:bf:c6:3e:4f, 2015-01-01 01:04:20.180, 0.026, 0.008, -0.978, 0, -0.061, -1.648, , , , , , , 179.753, -0.791, -127.645, -78.300, 13.100, -69.807, 20.5, 0.00647, 0.4408, -0.89752, -0.00122, 406, 100,
 19:46:21.617,e8:da:bf:c6:3e:4f, 2015-01-01 01:04:20.180, 0.022, 0.007, -0.974, 0.061, -0.061, -1.892, , , , , , , 179.753, -0.791, -127.628, -78.300, 13.100, -69.807, 20.5, 0.00647, 0.4408, -0.89752, -0.00122, 406, 100,
 19:46:21.617,e8:da:bf:c6:3e:4f, 2015-01-01 01:04:20.180, 0.019, 0.007, -0.98, 0.061, -0.061, -1.953, , , , , , , 179.753, -0.791, -127.612, -78.300, 13.100, -69.807, 20.5, 0.00647, 0.4408, -0.89752, -0.00122, 406, 100,
 19:46:21.617,e8:da:bf:c6:3e:4f, 2015-01-01 01:04:20.180, 0.017, 0.007, -0.99, 0, -0.061, -2.014, , , , , , , 179.758, -0.791, -127.59, -78.300, 13.100, -69.807, 20.5, 0.00647, 0.4408, -0.89752, -0.00122, 406, 100,
 19:46:21.617,e8:da:bf:c6:3e:4f, 2015-01-01 01:04:20.180, 0.016, 0.008, -0.988, -0.122, -0.061, -2.136, , , , , , , 179.753, -0.791, -127.573, -78.300, 13.100, -69.807, 20.5, 0.00647, 0.4408, -0.89752, -0.00122, 406, 100,
 19:46:21.617,e8:da:bf:c6:3e:4f, 2015-01-01 01:04:20.180, 0.014, 0.008, -0.977, 0, -0.061, -2.197, , , , , , , 179.753, -0.786, -127.551, -78.300, 13.100, -69.807, 20.5, 0.00647, 0.4408, -0.89752, -0.00122, 406, 100,
 19:46:21.618,e8:da:bf:c6:3e:4f, 2015-01-01 01:04:20.180, 0.009, 0.008, -0.972, 0.061, -0.061, -2.319, , , , , , , 179.753, -0.786, -127.529, -78.300, 13.100, -69.807, 20.5, 0.00647, 0.4408, -0.89752, -0.00122, 406, 100,
 19:46:21.618,e8:da:bf:c6:3e:4f, 2015-01-01 01:04:20.180, 0.004, 0.008, -0.979, 0.122, -0.061, -2.319, , , , , , , 179.753, -0.786, -127.507, -78.300, 13.100, -69.807, 20.5, 0.00647, 0.4408, -0.89752, -0.00122, 406, 100,
 19:46:21.618,e8:da:bf:c6:3e:4f, 2015-01-01 01:04:20.180, 0.002, 0.008, -0.989, 0, -0.061, -2.136, , , , , , , 179.753, -0.786, -127.485, -78.300, 13.100, -69.807, 20.5, 0.00647, 0.4408, -0.89752, -0.00122, 406, 100,
 19:46:21.618,e8:da:bf:c6:3e:4f, 2015-01-01 01:04:20.180, 0, 0.007, -0.989, 0, -0.061, -2.075, , , , , , , 179.753, -0.786, -127.469, -78.300, 13.100, -69.807, 20.5, 0.00647, 0.4408, -0.89752, -0.00122, 406, 100,
 19:46:21.618,e8:da:bf:c6:3e:4f, 2015-01-01 01:04:20.180, 0, 0.007, -0.98, 0, -0.061, -1.892, , , , , , , 179.753, -0.786, -127.452, -78.300, 13.100, -69.807, 20.5, 0.00647, 0.4408, -0.89752, -0.00122, 406, 100,
 19:46:21.618,e8:da:bf:c6:3e:4f, 2015-01-01 01:04:20.180, -0.003, 0.007, -0.975, 0.061, -0.061, -1.831, , , , , , , 179.753, -0.78, -127.436, -78.300, 13.100, -69.807, 20.5, 0.00647, 0.4408, -0.89752, -0.00122, 406, 100,
 19:46:21.618,e8:da:bf:c6:3e:4f, 2015-01-01 01:04:20.180, -0.006, 0.007, -0.978, 0.061, -0.061, -1.587, , , , , , , 179.753, -0.78, -127.419, -78.300, 13.100, -69.807, 20.5, 0.00647, 0.4408, -0.89752, -0.00122, 406, 100,
 19:46:21.618,e8:da:bf:c6:3e:4f, 2015-01-01 01:04:20.180, -0.008, 0.008, -0.983, 0, -0.061, -1.282, , , , , , , 179.753, -0.78, -127.403, -78.300, 13.100, -69.807, 20.5, 0.00647, 0.4408, -0.89752, -0.00122, 406, 100,
 19:46:21.618,e8:da:bf:c6:3e:4f, 2015-01-01 01:04:20.180, -0.009, 0.007, -0.984, 0, -0.061, -0.977, , , , , , , 179.753, -0.78, -127.397, -78.300, 13.100, -69.807, 20.5, 0.00647, 0.4408, -0.89752, -0.00122, 406, 100,
 19:46:21.659,e8:da:bf:c6:3e:4f, 2015-01-01 01:04:20.180, -0.008, 0.006, -0.98, 0, 0, -0.671, , , , , , , 179.753, -0.78, -127.386, -78.300, 13.100, -69.807, 20.5, 0.00647, 0.4408, -0.89752, -0.00122, 406, 100,
 19:46:21.659,e8:da:bf:c6:3e:4f, 2015-01-01 01:04:20.180, -0.008, 0.006, -0.979, 0, 0, -0.488, , , , , , , 179.753, -0.78, -127.386, -78.300, 13.100, -69.807, 20.5, 0.00647, 0.4408, -0.89752, -0.00122, 406, 100,
 19:46:21.659,e8:da:bf:c6:3e:4f, 2015-01-01 01:04:20.180, -0.008, 0.007, -0.983, 0, 0, -0.305, , , , , , , 179.753, -0.78, -127.381, -78.300, 13.100, -69.807, 20.5, 0.00647, 0.4408, -0.89752, -0.00122, 406, 100,
 19:46:21.659,e8:da:bf:c6:3e:4f, 2015-01-01 01:04:20.180, -0.008, 0.008, -0.984, 0, 0, 0, , , , , , , 179.753, -0.78, -127.381, -78.300, 13.100, -69.807, 20.5, 0.00647, 0.4408, -0.89752, -0.00122, 406, 100,
 19:46:21.691,e8:da:bf:c6:3e:4f, 2015-01-01 01:04:20.180, -0.005, 0.008, -0.979, 0, 0, 0.366, , , , , , , 179.753, -0.78, -127.386, -78.300, 13.100, -69.807, 20.5, 0.00647, 0.4408, -0.89752, -0.00122, 406, 100,
 19:46:21.691,e8:da:bf:c6:3e:4f, 2015-01-01 01:04:20.180, -0.002, 0.007, -0.977, 0, 0, 0.549, , , , , , , 179.753, -0.78, -127.392, -78.300, 13.100, -69.807, 20.5, 0.00647, 0.4408, -0.89752, -0.00122, 406, 100,
 19:46:21.691,e8:da:bf:c6:3e:4f, 2015-01-01 01:04:20.180, 0.002, 0.007, -0.979, 0, 0, 0.732, , , , , , , 179.753, -0.78, -127.403, -78.300, 13.100, -69.807, 20.5, 0.00647, 0.4408, -0.89752, -0.00122, 406, 100,
 19:46:21.691,e8:da:bf:c6:3e:4f, 2015-01-01 01:04:20.180, 0.005, 0.007, -0.985, 0, 0, 0.793, , , , , , , 179.753, -0.78, -127.414, -78.300, 13.100, -69.807, 20.5, 0.00647, 0.4408, -0.89752, -0.00122, 406, 100,
 19:46:21.734,e8:da:bf:c6:3e:4f, 2015-01-01 01:04:20.180, 0.007, 0.007, -0.985, -0.061, 0, 0.916, , , , , , , 179.753, -0.78, -127.425, -78.300, 13.100, -69.807, 20.5, 0.00647, 0.4408, -0.89752, -0.00122, 406, 100,
 19:46:21.735,e8:da:bf:c6:3e:4f, 2015-01-01 01:04:20.180, 0.007, 0.007, -0.98, 0, 0, 0.916, , , , , , , 179.753, -0.78, -127.436, -78.300, 13.100, -69.807, 20.5, 0.00647, 0.4408, -0.89752, -0.00122, 406, 100,
 19:46:21.735,e8:da:bf:c6:3e:4f, 2015-01-01 01:04:20.180, 0.009, 0.008, -0.978, 0, 0, 1.099, , , , , , , 179.753, -0.78, -127.447, -78.300, 13.100, -69.807, 20.5, 0.00647, 0.4408, -0.89752, -0.00122, 406, 100,
 19:46:21.735,e8:da:bf:c6:3e:4f, 2015-01-01 01:04:20.180, 0.011, 0.008, -0.979, 0, 0, 1.099, , , , , , , 179.753, -0.786, -127.458, -78.300, 13.100, -69.807, 20.5, 0.00647, 0.4408, -0.89752, -0.00122, 406, 100,
 19:46:21.865,e8:da:bf:c6:3e:4f, 2015-01-01 01:04:20.180, 0.013, 0.008, -0.982, 0, 0, 1.038, , , , , , , 179.753, -0.786, -127.474, -78.300, 13.100, -69.807, 20.5, 0.00641, 0.44202, -0.89691, -0.00122, 406, 100,
 19:46:21.902,e8:da:bf:c6:3e:4f, 2015-01-01 01:04:20.505, 0.015, 0.008, -0.982, 0, 0, 0.977, , , , , , , 179.753, -0.786, -127.485, -78.300, 13.100, -69.807, 20.5, 0.00641, 0.44202, -0.89691, -0.00122, 406, 100,
 19:46:21.902,e8:da:bf:c6:3e:4f, 2015-01-01 01:04:20.505, 0.017, 0.007, -0.98, 0, 0, 0.916, , , , , , , 179.753, -0.786, -127.496, -78.300, 13.100, -69.807, 20.5, 0.00641, 0.44202, -0.89691, -0.00122, 406, 100,
 19:46:21.902,e8:da:bf:c6:3e:4f, 2015-01-01 01:04:20.505, 0.018, 0.007, -0.982, 0, 0, 0.916, , , , , , , 179.753, -0.786, -127.507, -78.300, 13.100, -69.807, 20.5, 0.00641, 0.44202, -0.89691, -0.00122, 406, 100,
 19:46:21.919,e8:da:bf:c6:3e:4f, 2015-01-01 01:04:20.505, 0.02, 0.007, -0.983, 0, 0, 0.793, , , , , , , 179.753, -0.786, -127.518, -78.300, 13.100, -69.807, 20.5, 0.00641, 0.44202, -0.89691, -0.00122, 406, 100,
 19:46:21.919,e8:da:bf:c6:3e:4f, 2015-01-01 01:04:20.505, 0.021, 0.008, -0.981, 0, 0, 0.61, , , , , , , 179.753, -0.786, -127.529, -78.300, 13.100, -69.807, 20.5, 0.00641, 0.44202, -0.89691, -0.00122, 406, 100,
 19:46:21.919,e8:da:bf:c6:3e:4f, 2015-01-01 01:04:20.505, 0.022, 0.008, -0.98, 0, 0, 0.427, , , , , , , 179.753, -0.786, -127.535, -78.300, 13.100, -69.807, 20.5, 0.00641, 0.44202, -0.89691, -0.00122, 406, 100,
 19:46:21.919,e8:da:bf:c6:3e:4f, 2015-01-01 01:04:20.505, 0.022, 0.008, -0.98, 0, 0, 0.305, , , , , , , 179.753, -0.786, -127.54, -78.300, 13.100, -69.807, 20.5, 0.00641, 0.44202, -0.89691, -0.00122, 406, 100,
 19:46:21.920,e8:da:bf:c6:3e:4f, 2015-01-01 01:04:20.505, 0.021, 0.007, -0.978, 0, 0, 0.061, , , , , , , 179.753, -0.786, -127.546, -78.300, 13.100, -69.807, 20.5, 0.00641, 0.44202, -0.89691, -0.00122, 406, 100,
 19:46:21.920,e8:da:bf:c6:3e:4f, 2015-01-01 01:04:20.505, 0.022, 0.007, -0.98, 0.061, 0, 0, , , , , , , 179.758, -0.786, -127.546, -78.300, 13.100, -69.807, 20.5, 0.00641, 0.44202, -0.89691, -0.00122, 406, 100,
 19:46:21.920,e8:da:bf:c6:3e:4f, 2015-01-01 01:04:20.505, 0.022, 0.007, -0.986, 0, 0, -0.122, , , , , , , 179.758, -0.786, -127.551, -78.300, 13.100, -69.807, 20.5, 0.00641, 0.44202, -0.89691, -0.00122, 406, 100,
 19:46:21.920,e8:da:bf:c6:3e:4f, 2015-01-01 01:04:20.505, 0.022, 0.008, -0.984, 0, 0, -0.244, , , , , , , 179.758, -0.786, -127.551, -78.300, 13.100, -69.807, 20.5, 0.00641, 0.44202, -0.89691, -0.00122, 406, 100,
 19:46:21.920,e8:da:bf:c6:3e:4f, 2015-01-01 01:04:20.505, 0.021, 0.008, -0.979, 0, 0, -0.427, , , , , , , 179.753, -0.786, -127.546, -78.300, 13.100, -69.807, 20.5, 0.00641, 0.44202, -0.89691, -0.00122, 406, 100,
 19:46:21.920,e8:da:bf:c6:3e:4f, 2015-01-01 01:04:20.505, 0.019, 0.008, -0.975, 0, 0, -0.61, , , , , , , 179.753, -0.786, -127.546, -78.300, 13.100, -69.807, 20.5, 0.00641, 0.44202, -0.89691, -0.00122, 406, 100,
 19:46:21.920,e8:da:bf:c6:3e:4f, 2015-01-01 01:04:20.505, 0.016, 0.008, -0.977, 0, -0.061, -0.732, , , , , , , 179.758, -0.786, -127.54, -78.300, 13.100, -69.807, 20.5, 0.00641, 0.44202, -0.89691, -0.00122, 406, 100,
 19:46:21.921,e8:da:bf:c6:3e:4f, 2015-01-01 01:04:20.505, 0.015, 0.007, -0.982, 0, 0, -0.732, , , , , , , 179.758, -0.786, -127.535, -78.300, 13.100, -69.807, 20.5, 0.00641, 0.44202, -0.89691, -0.00122, 406, 100,
 19:46:21.921,e8:da:bf:c6:3e:4f, 2015-01-01 01:04:20.505, 0.014, 0.007, -0.986, 0, 0, -0.793, , , , , , , 179.758, -0.786, -127.524, -78.300, 13.100, -69.807, 20.5, 0.00641, 0.44202, -0.89691, -0.00122, 406, 100,
 19:46:21.921,e8:da:bf:c6:3e:4f, 2015-01-01 01:04:20.505, 0.013, 0.007, -0.984, 0, 0, -0.854, , , , , , , 179.758, -0.786, -127.518, -78.300, 13.100, -69.807, 20.5, 0.00641, 0.44202, -0.89691, -0.00122, 406, 100,
 19:46:21.921,e8:da:bf:c6:3e:4f, 2015-01-01 01:04:20.505, 0.011, 0.007, -0.98, 0, -0.061, -0.916, , , , , , , 179.758, -0.786, -127.513, -78.300, 13.100, -69.807, 20.5, 0.00641, 0.44202, -0.89691, -0.00122, 406, 100,
 19:46:21.921,e8:da:bf:c6:3e:4f, 2015-01-01 01:04:20.505, 0.008, 0.007, -0.977, 0, -0.061, -0.916, , , , , , , 179.753, -0.786, -127.502, -78.300, 13.100, -69.807, 20.5, 0.00641, 0.44202, -0.89691, -0.00122, 406, 100,
 19:46:21.967,e8:da:bf:c6:3e:4f, 2015-01-01 01:04:20.505, 0.006, 0.008, -0.979, 0, -0.061, -0.916, , , , , , , 179.758, -0.786, -127.496, -78.300, 13.100, -69.807, 20.5, 0.00641, 0.44202, -0.89691, -0.00122, 406, 100,
 19:46:21.967,e8:da:bf:c6:3e:4f, 2015-01-01 01:04:20.505, 0.006, 0.008, -0.982, 0, 0, -0.793, , , , , , , 179.758, -0.786, -127.491, -78.300, 13.100, -69.807, 20.5, 0.00641, 0.44202, -0.89691, -0.00122, 406, 100,
 19:46:21.967,e8:da:bf:c6:3e:4f, 2015-01-01 01:04:20.505, 0.006, 0.007, -0.982, 0, 0, -0.793, , , , , , , 179.758, -0.786, -127.485, -78.300, 13.100, -69.807, 20.5, 0.00641, 0.44202, -0.89691, -0.00122, 406, 100,
 19:46:21.967,e8:da:bf:c6:3e:4f, 2015-01-01 01:04:20.505, 0.005, 0.007, -0.982, 0, 0, -0.793, , , , , , , 179.758, -0.786, -127.48, -78.300, 13.100, -69.807, 20.5, 0.00641, 0.44202, -0.89691, -0.00122, 406, 100,
 19:46:22.072,e8:da:bf:c6:3e:4f, 2015-01-01 01:04:20.505, 0.004, 0.007, -0.982, 0, 0, -0.732, , , , , , , 179.758, -0.786, -127.474, -78.300, 13.100, -69.807, 20.5, 0.00641, 0.44202, -0.89691, -0.00122, 406, 100,
 19:46:22.091,e8:da:bf:c6:3e:4f, 2015-01-01 01:04:20.505, 0.003, 0.008, -0.982, 0, 0, -0.671, , , , , , , 179.753, -0.786, -127.469, -78.300, 13.100, -69.807, 20.5, 0.00641, 0.44202, -0.89691, -0.00122, 406, 100,
 19:46:22.091,e8:da:bf:c6:3e:4f, 2015-01-01 01:04:20.505, 0.004, 0.008, -0.98, 0, 0, -0.427, , , , , , , 179.753, -0.786, -127.463, -78.300, 13.100, -69.807, 20.5, 0.00641, 0.44202, -0.89691, -0.00122, 406, 100,
 19:46:22.091,e8:da:bf:c6:3e:4f, 2015-01-01 01:04:20.505, 0.005, 0.008, -0.979, 0, 0, -0.366, , , , , , , 179.758, -0.786, -127.458, -78.300, 13.100, -69.807, 20.5, 0.00641, 0.44202, -0.89691, -0.00122, 406, 100,
 19:46:22.107,e8:da:bf:c6:3e:4f, 2015-01-01 01:04:20.505, 0.006, 0.007, -0.979, 0, 0, -0.305, , , , , , , 179.758, -0.786, -127.458, -78.300, 13.100, -69.807, 20.5, 0.00641, 0.44202, -0.89691, -0.00122, 406, 100,
 19:46:22.107,e8:da:bf:c6:3e:4f, 2015-01-01 01:04:20.505, 0.006, 0.007, -0.981, 0, 0, -0.183, , , , , , , 179.758, -0.786, -127.458, -78.300, 13.100, -69.807, 20.5, 0.00641, 0.44202, -0.89691, -0.00122, 406, 100,
 19:46:22.107,e8:da:bf:c6:3e:4f, 2015-01-01 01:04:20.505, 0.006, 0.007, -0.984, 0, 0, -0.122, , , , , , , 179.758, -0.786, -127.458, -78.300, 13.100, -69.807, 20.5, 0.00641, 0.44202, -0.89691, -0.00122, 406, 100,
 19:46:22.107,e8:da:bf:c6:3e:4f, 2015-01-01 01:04:20.505, 0.006, 0.007, -0.983, 0, 0, -0.061, , , , , , , 179.753, -0.786, -127.458, -78.300, 13.100, -69.807, 20.5, 0.00641, 0.44202, -0.89691, -0.00122, 406, 100,
 19:46:22.107,e8:da:bf:c6:3e:4f, 2015-01-01 01:04:20.505, 0.006, 0.007, -0.981, 0, 0, 0, , , , , , , 179.753, -0.786, -127.458, -78.300, 13.100, -69.807, 20.5, 0.00641, 0.44202, -0.89691, -0.00122, 406, 100,
 19:46:22.107,e8:da:bf:c6:3e:4f, 2015-01-01 01:04:20.505, 0.008, 0.008, -0.977, 0, 0, 0.061, , , , , , , 179.753, -0.786, -127.463, -78.300, 13.100, -69.807, 20.5, 0.00641, 0.44202, -0.89691, -0.00122, 406, 100,
 19:46:22.107,e8:da:bf:c6:3e:4f, 2015-01-01 01:04:20.505, 0.008, 0.008, -0.978, 0, 0, 0.061, , , , , , , 179.753, -0.786, -127.469, -78.300, 13.100, -69.807, 20.5, 0.00641, 0.44202, -0.89691, -0.00122, 406, 100,
 19:46:22.107,e8:da:bf:c6:3e:4f, 2015-01-01 01:04:20.505, 0.008, 0.008, -0.982, 0, 0, 0.183, , , , , , , 179.758, -0.786, -127.469, -78.300, 13.100, -69.807, 20.5, 0.00641, 0.44202, -0.89691, -0.00122, 406, 100,
 19:46:22.140,e8:da:bf:c6:3e:4f, 2015-01-01 01:04:20.505, 0.008, 0.007, -0.984, 0, -0.061, 0.122, , , , , , , 179.753, -0.786, -127.474, -78.300, 13.100, -69.807, 20.5, 0.00638, 0.44238, -0.89676, -0.00122, 406, 100,
 19:46:22.140,e8:da:bf:c6:3e:4f, 2015-01-01 01:04:20.505, 0.01, 0.007, -0.983, 0, 0, 0.183, , , , , , , 179.753, -0.786, -127.474, -78.300, 13.100, -69.807, 20.5, 0.00638, 0.44238, -0.89676, -0.00122, 406, 100,
 19:46:22.140,e8:da:bf:c6:3e:4f, 2015-01-01 01:04:20.505, 0.011, 0.007, -0.981, 0, 0, 0.183, , , , , , , 179.753, -0.786, -127.48, -78.300, 13.100, -69.807, 20.5, 0.00638, 0.44238, -0.89676, -0.00122, 406, 100,
 19:46:22.140,e8:da:bf:c6:3e:4f, 2015-01-01 01:04:20.505, 0.013, 0.008, -0.979, 0, 0, 0.183, , , , , , , 179.753, -0.786, -127.485, -78.300, 13.100, -69.807, 20.5, 0.00638, 0.44238, -0.89676, -0.00122, 406, 100,
 19:46:22.180,e8:da:bf:c6:3e:4f, 2015-01-01 01:04:20.505, 0.013, 0.008, -0.979, 0, 0, 0.122, , , , , , , 179.753, -0.786, -127.491, -78.300, 13.100, -69.807, 20.5, 0.00638, 0.44238, -0.89676, -0.00122, 406, 100,
 19:46:22.180,e8:da:bf:c6:3e:4f, 2015-01-01 01:04:20.505, 0.013, 0.008, -0.979, 0, 0, 0.122, , , , , , , 179.753, -0.786, -127.491, -78.300, 13.100, -69.807, 20.5, 0.00638, 0.44238, -0.89676, -0.00122, 406, 100,
 19:46:22.180,e8:da:bf:c6:3e:4f, 2015-01-01 01:04:20.505, 0.013, 0.007, -0.98, 0, 0, 0.061, , , , , , , 179.753, -0.786, -127.496, -78.300, 13.100, -69.807, 20.5, 0.00638, 0.44238, -0.89676, -0.00122, 406, 100,
 19:46:22.181,e8:da:bf:c6:3e:4f, 2015-01-01 01:04:20.505, 0.014, 0.007, -0.984, 0, 0, 0, , , , , , , 179.753, -0.786, -127.496, -78.300, 13.100, -69.807, 20.5, 0.00638, 0.44238, -0.89676, -0.00122, 406, 100,
 19:46:22.197,e8:da:bf:c6:3e:4f, 2015-01-01 01:04:20.865, 0.015, 0.007, -0.983, 0, 0, 0, , , , , , , 179.753, -0.786, -127.502, -78.300, 13.100, -69.807, 20.5, 0.00638, 0.44238, -0.89676, -0.00122, 406, 100,
 19:46:22.197,e8:da:bf:c6:3e:4f, 2015-01-01 01:04:20.865, 0.015, 0.007, -0.981, 0, 0, -0.061, , , , , , , 179.753, -0.786, -127.502, -78.300, 13.100, -69.807, 20.5, 0.00638, 0.44238, -0.89676, -0.00122, 406, 100,
 19:46:22.197,e8:da:bf:c6:3e:4f, 2015-01-01 01:04:20.865, 0.015, 0.008, -0.979, 0, 0, -0.122, , , , , , , 179.753, -0.786, -127.502, -78.300, 13.100, -69.807, 20.5, 0.00638, 0.44238, -0.89676, -0.00122, 406, 100,
 19:46:22.197,e8:da:bf:c6:3e:4f, 2015-01-01 01:04:20.865, 0.014, 0.008, -0.978, 0, 0, -0.183, , , , , , , 179.753, -0.786, -127.502, -78.300, 13.100, -69.807, 20.5, 0.00638, 0.44238, -0.89676, -0.00122, 406, 100,
 19:46:22.406,e8:da:bf:c6:3e:4f, 2015-01-01 01:04:20.865, 0.013, 0.008, -0.98, 0, 0, -0.244, , , , , , , 179.753, -0.786, -127.502, -78.300, 13.100, -69.807, 20.5, 0.00638, 0.44238, -0.89676, -0.00122, 406, 100,
 19:46:22.430,e8:da:bf:c6:3e:4f, 2015-01-01 01:04:20.865, 0.013, 0.008, -0.983, 0, 0, -0.244, , , , , , , 179.753, -0.786, -127.502, -78.300, 13.100, -69.807, 20.5, 0.00638, 0.44238, -0.89676, -0.00122, 406, 100,
 19:46:22.430,e8:da:bf:c6:3e:4f, 2015-01-01 01:04:20.865, 0.013, 0.007, -0.984, 0, 0, -0.305, , , , , , , 179.753, -0.786, -127.496, -78.300, 13.100, -69.807, 20.5, 0.00638, 0.44238, -0.89676, -0.00122, 406, 100,
 19:46:22.431,e8:da:bf:c6:3e:4f, 2015-01-01 01:04:20.865, 0.012, 0.007, -0.981, 0, 0, -0.366, , , , , , , 179.753, -0.786, -127.496, -78.300, 13.100, -69.807, 20.5, 0.00638, 0.44238, -0.89676, -0.00122, 406, 100,
 19:46:22.447,e8:da:bf:c6:3e:4f, 2015-01-01 01:04:20.865, 0.014, 0.008, -0.98, 0, 0, -0.366, , , , , , , 179.753, -0.786, -127.496, -78.300, 13.100, -69.807, 20.5, 0.00638, 0.44238, -0.89676, -0.00122, 406, 100,
 19:46:22.447,e8:da:bf:c6:3e:4f, 2015-01-01 01:04:20.865, 0.027, 0.008, -0.978, 0.061, 0.305, -0.061, , , , , , , 179.753, -0.786, -127.491, -78.300, 13.100, -69.807, 20.5, 0.00638, 0.44238, -0.89676, -0.00122, 406, 100,
 19:46:22.447,e8:da:bf:c6:3e:4f, 2015-01-01 01:04:20.865, 0.059, 0.006, -0.979, 0, 1.587, 1.77, , , , , , , 179.753, -0.797, -127.502, -78.300, 13.100, -69.807, 20.5, 0.00638, 0.44238, -0.89676, -0.00122, 406, 100,
 19:46:22.447,e8:da:bf:c6:3e:4f, 2015-01-01 01:04:20.865, 0.419, 0.002, -0.989, 0, 1.587, 8.667, , , , , , , 179.753, -0.813, -127.557, -78.300, 13.100, -69.807, 20.5, 0.00638, 0.44238, -0.89676, -0.00122, 406, 100,
 19:46:22.447,e8:da:bf:c6:3e:4f, 2015-01-01 01:04:20.865, 0.883, 0.02, -1.008, 0.183, -0.977, 1.343, , , , , , , 179.758, -0.824, -127.628, -78.300, 13.100, -69.807, 20.5, 0.00638, 0.44238, -0.89676, -0.00122, 406, 100,
 19:46:22.448,e8:da:bf:c6:3e:4f, 2015-01-01 01:04:20.865, 1.117, 0.034, -1.018, -0.916, 0.61, -20.752, , , , , , , 179.753, -0.818, -127.513, -78.300, 13.100, -69.807, 20.5, 0.00638, 0.44238, -0.89676, -0.00122, 406, 100,
 19:46:22.448,e8:da:bf:c6:3e:4f, 2015-01-01 01:04:20.865, 1.417, 0.021, -0.994, -0.61, -0.183, -32.532, , , , , , , 179.742, -0.824, -127.249, -78.300, 13.100, -69.807, 20.5, 0.00638, 0.44238, -0.89676, -0.00122, 406, 100,
 19:46:22.448,e8:da:bf:c6:3e:4f, 2015-01-01 01:04:20.865, 1.398, 0.009, -0.945, -0.244, -1.099, -58.228, , , , , , , 179.731, -0.813, -126.788, -78.300, 13.100, -69.807, 20.5, 0.00638, 0.44238, -0.89676, -0.00122, 406, 100,
 19:46:22.448,e8:da:bf:c6:3e:4f, 2015-01-01 01:04:20.865, 1.318, -0.023, -0.916, 0.549, -0.671, -75.928, , , , , , , 179.725, -0.802, -126.101, -78.300, 13.100, -69.807, 20.5, 0.00638, 0.44238, -0.89676, -0.00122, 406, 100,
 19:46:22.448,e8:da:bf:c6:3e:4f, 2015-01-01 01:04:20.865, 1.05, -0.052, -0.934, 1.038, -1.587, -96.069, , , , , , , 179.725, -0.78, -125.239, -78.300, 13.100, -69.807, 20.5, 0.00638, 0.44238, -0.89676, -0.00122, 406, 100,
 19:46:22.448,e8:da:bf:c6:3e:4f, 2015-01-01 01:04:20.865, 0.844, -0.09, -1.002, 0.549, -0.732, -108.765, , , , , , , 179.725, -0.764, -124.2, -78.300, 13.100, -69.807, 20.5, 0.00638, 0.44238, -0.89676, -0.00122, 406, 100,
 19:46:22.448,e8:da:bf:c6:3e:4f, 2015-01-01 01:04:20.865, 0.641, -0.125, -1.041, -0.183, -1.221, -120.117, , , , , , , 179.714, -0.742, -123.058, -78.300, 13.100, -69.807, 20.5, 0.00638, 0.44238, -0.89676, -0.00122, 406, 100,
 19:46:22.449,e8:da:bf:c6:3e:4f, 2015-01-01 01:04:20.865, 0.338, -0.17, -0.98, -0.183, 2.319, -131.47, , , , , , , 179.698, -0.736, -121.783, -78.300, 13.100, -69.807, 20.5, 0.00638, 0.44238, -0.89676, -0.00122, 406, 100,
 19:46:22.449,e8:da:bf:c6:3e:4f, 2015-01-01 01:04:20.865, 0.223, -0.208, -0.885, 1.709, 2.686, -130.798, , , , , , , 179.692, -0.758, -120.471, -78.300, 13.100, -69.807, 20.5, 0.00638, 0.44238, -0.89676, -0.00122, 406, 100,
 19:46:22.449,e8:da:bf:c6:3e:4f, 2015-01-01 01:04:20.865, 0.116, -0.208, -0.934, 2.197, -0.183, -136.78, , , , , , , 179.703, -0.758, -119.141, -78.300, 13.100, -69.807, 20.5, 0.00638, 0.44238, -0.89676, -0.00122, 406, 100,
 19:46:22.449,e8:da:bf:c6:3e:4f, 2015-01-01 01:04:20.865, -0.038, -0.201, -1.07, 0.366, 0.122, -141.174, , , , , , , 179.703, -0.747, -117.74, -78.300, 13.100, -69.807, 20.5, 0.00638, 0.44238, -0.89676, -0.00122, 406, 100,
 19:46:22.449,e8:da:bf:c6:3e:4f, 2015-01-01 01:04:20.865, -0.117, -0.208, -1.105, -1.16, 1.16, -138.245, , , , , , , 179.681, -0.747, -116.345, -78.300, 13.100, -69.807, 20.5, 0.00638, 0.44238, -0.89676, -0.00122, 406, 100,
 19:46:22.449,e8:da:bf:c6:3e:4f, 2015-01-01 01:04:20.865, -0.101, -0.224, -0.978, -0.366, 0.793, -133.423, , , , , , , 179.659, -0.742, -114.988, -78.300, 13.100, -69.807, 20.5, 0.00638, 0.44238, -0.89676, -0.00122, 406, 100,
 19:46:22.449,e8:da:bf:c6:3e:4f, 2015-01-01 01:04:20.865, -0.053, -0.228, -0.871, 1.465, 0.732, -130.554, , , , , , , 179.654, -0.742, -113.676, -78.300, 13.100, -69.807, 20.5, 0.00638, 0.44238, -0.89676, -0.00122, 406, 100,
 19:46:22.450,e8:da:bf:c6:3e:4f, 2015-01-01 01:04:20.865, -0.064, -0.212, -0.938, 1.587, 0.427, -130.371, , , , , , , 179.659, -0.736, -112.374, -78.300, 13.100, -69.807, 20.5, 0.00638, 0.44238, -0.89676, -0.00122, 406, 100,
 19:46:22.521,e8:da:bf:c6:3e:4f, 2015-01-01 01:04:20.865, -0.196, -0.188, -1.061, 0, -2.869, -130.981, , , , , , , 179.654, -0.725, -111.072, -78.300, 13.100, -69.807, 20.5, 0.00616, 0.57556, -0.81766, -0.00171, 406, 100,
 19:46:22.521,e8:da:bf:c6:3e:4f, 2015-01-01 01:04:20.865, -1.498, -0.165, -1.05, -0.977, -5.981, -141.418, , , , , , , 179.637, -0.654, -109.709, -78.300, 13.100, -69.807, 20.5, 0.00616, 0.57556, -0.81766, -0.00171, 406, 100,
 19:46:22.521,e8:da:bf:c6:3e:4f, 2015-01-01 01:04:20.865, -2.943, -0.179, -1.05, 0.244, -9.155, -114.502, , , , , , , 179.626, -0.577, -108.397, -78.300, 13.100, -69.807, 20.5, 0.00616, 0.57556, -0.81766, -0.00171, 406, 100,
 19:46:22.521,e8:da:bf:c6:3e:4f, 2015-01-01 01:04:20.865, -4.223, -0.182, -1.039, 0.305, -6.897, -66.589, , , , , , , 179.621, -0.478, -107.518, -78.300, 13.100, -69.807, 20.5, 0.00616, 0.57556, -0.81766, -0.00171, 406, 100,
 19:46:22.537,e8:da:bf:c6:3e:4f, 2015-01-01 01:04:20.865, -4.501, -0.196, -0.902, 0.671, -0.732, 1.343, , , , , , , 179.632, -0.445, -107.205, -78.300, 13.100, -69.807, 20.5, 0.00616, 0.57556, -0.81766, -0.00171, 406, 100,
 19:46:22.537,e8:da:bf:c6:3e:4f, 2015-01-01 01:04:20.865, -3.784, -0.217, -0.792, 1.038, 6.531, 71.228, , , , , , , 179.643, -0.483, -107.628, -78.300, 13.100, -69.807, 20.5, 0.00616, 0.57556, -0.81766, -0.00171, 406, 100,
 19:46:22.537,e8:da:bf:c6:3e:4f, 2015-01-01 01:04:20.865, -2.385, -0.239, -0.874, -0.488, 10.559, 123.108, , , , , , , 179.654, -0.582, -108.627, -78.300, 13.100, -69.807, 20.5, 0.00616, 0.57556, -0.81766, -0.00171, 406, 100,
 19:46:22.537,e8:da:bf:c6:3e:4f, 2015-01-01 01:04:20.865, -0.806, -0.275, -0.969, -3.784, 8.179, 157.227, , , , , , , 179.637, -0.692, -110.078, -78.300, 13.100, -69.807, 20.5, 0.00616, 0.57556, -0.81766, -0.00171, 406, 100,
 19:46:22.564,e8:da:bf:c6:3e:4f, 2015-01-01 01:04:21.220, 0.062, -0.263, -0.913, 0.916, 4.639, 160.767, , , , , , , 179.637, -0.78, -111.682, -78.300, 13.100, -69.807, 20.5, 0.00616, 0.57556, -0.81766, -0.00171, 406, 100,
 19:46:22.564,e8:da:bf:c6:3e:4f, 2015-01-01 01:04:21.220, 1.133, -0.26, -1.037, 0.854, 4.761, 166.321, , , , , , , 179.67, -0.835, -113.307, -78.300, 13.100, -69.807, 20.5, 0.00616, 0.57556, -0.81766, -0.00171, 406, 100,
 19:46:22.564,e8:da:bf:c6:3e:4f, 2015-01-01 01:04:21.220, 2.322, -0.207, -1.316, 0.549, -8.24, 153.259, , , , , , , 179.692, -0.829, -114.977, -78.300, 13.100, -69.807, 20.5, 0.00616, 0.57556, -0.81766, -0.00171, 406, 100,
 19:46:22.564,e8:da:bf:c6:3e:4f, 2015-01-01 01:04:21.220, 2.295, -0.108, -1.149, -6.653, 0.977, 91.919, , , , , , , 179.67, -0.802, -116.147, -78.300, 13.100, -69.807, 20.5, 0.00616, 0.57556, -0.81766, -0.00171, 406, 100,
 19:46:22.669,e8:da:bf:c6:3e:4f, 2015-01-01 01:04:21.220, 1.821, -0.067, -0.705, -0.244, -6.47, 67.505, , , , , , , 179.637, -0.791, -116.938, -78.300, 13.100, -69.807, 20.5, 0.00616, 0.57556, -0.81766, -0.00171, 406, 100,
 19:46:22.670,e8:da:bf:c6:3e:4f, 2015-01-01 01:04:21.220, 0.676, -0.027, -0.555, 3.967, -2.014, 30.396, , , , , , , 179.67, -0.725, -117.394, -78.300, 13.100, -69.807, 20.5, 0.00616, 0.57556, -0.81766, -0.00171, 406, 100,
 19:46:22.670,e8:da:bf:c6:3e:4f, 2015-01-01 01:04:21.220, -0.157, 0.004, -0.855, 4.333, 1.77, 27.344, , , , , , , 179.714, -0.742, -117.664, -78.300, 13.100, -69.807, 20.5, 0.00616, 0.57556, -0.81766, -0.00171, 406, 100,
 19:46:22.670,e8:da:bf:c6:3e:4f, 2015-01-01 01:04:21.220, -1.007, 0.036, -1.329, -1.099, -8.606, 31.738, , , , , , , 179.736, -0.709, -117.971, -78.300, 13.100, -69.807, 20.5, 0.00616, 0.57556, -0.81766, -0.00171, 406, 100,
 19:46:22.687,e8:da:bf:c6:3e:4f, 2015-01-01 01:04:21.220, -2.278, -0.001, -1.438, -4.15, -6.226, 41.687, , , , , , , 179.703, -0.626, -118.317, -78.300, 13.100, -69.807, 20.5, 0.00616, 0.57556, -0.81766, -0.00171, 406, 100,
 19:46:22.687,e8:da:bf:c6:3e:4f, 2015-01-01 01:04:21.220, -2.89, -0.149, -1.087, -5.31, -5.127, 90.576, , , , , , , 179.654, -0.571, -118.998, -78.300, 13.100, -69.807, 20.5, 0.00616, 0.57556, -0.81766, -0.00171, 406, 100,
 19:46:22.687,e8:da:bf:c6:3e:4f, 2015-01-01 01:04:21.220, -2.644, -0.322, -0.575, 1.892, 3.784, 137.451, , , , , , , 179.648, -0.571, -120.163, -78.300, 13.100, -69.807, 20.5, 0.00616, 0.57556, -0.81766, -0.00171, 406, 100,
 19:46:22.687,e8:da:bf:c6:3e:4f, 2015-01-01 01:04:21.220, -1.434, -0.426, -0.574, 3.662, 7.141, 184.326, , , , , , , 179.698, -0.659, -121.816, -78.300, 13.100, -69.807, 20.5, 0.00616, 0.57556, -0.81766, -0.00171, 406, 100,
 19:46:22.687,e8:da:bf:c6:3e:4f, 2015-01-01 01:04:21.220, -0.477, -0.417, -0.927, 2.686, 6.348, 193.848, , , , , , , 179.747, -0.731, -123.734, -78.300, 13.100, -69.807, 20.5, 0.00616, 0.57556, -0.81766, -0.00171, 406, 100,
 19:46:22.687,e8:da:bf:c6:3e:4f, 2015-01-01 01:04:21.220, 0.046, -0.395, -1.284, -1.648, 2.808, 199.28, , , , , , , 179.769, -0.802, -125.706, -78.300, 13.100, -69.807, 20.5, 0.00616, 0.57556, -0.81766, -0.00171, 406, 100,
 19:46:22.687,e8:da:bf:c6:3e:4f, 2015-01-01 01:04:21.220, 0.241, -0.421, -1.269, -4.456, -0.366, 199.951, , , , , , , 179.758, -0.813, -127.711, -78.300, 13.100, -69.807, 20.5, 0.00616, 0.57556, -0.81766, -0.00171, 406, 100,
 19:46:22.688,e8:da:bf:c6:3e:4f, 2015-01-01 01:04:21.220, 0.343, -0.475, -0.932, -1.831, 1.038, 195.74, , , , , , , 179.742, -0.835, -129.688, -78.300, 13.100, -69.807, 20.5, 0.00616, 0.57556, -0.81766, -0.00171, 406, 100,
 19:46:22.784,e8:da:bf:c6:3e:4f, 2015-01-01 01:04:21.220, 0.652, -0.491, -0.757, 1.77, -0.671, 193.481, , , , , , , 179.769, -0.846, -131.638, -78.300, 13.100, -69.807, 20.5, 0.00616, 0.57556, -0.81766, -0.00171, 406, 100,
 19:46:22.784,e8:da:bf:c6:3e:4f, 2015-01-01 01:04:21.220, 0.625, -0.408, -0.964, 1.526, -2.441, 175.72, , , , , , , 179.813, -0.84, -133.495, -78.300, 13.100, -69.807, 20.5, 0.00616, 0.57556, -0.81766, -0.00171, 406, 100,
 19:46:22.784,e8:da:bf:c6:3e:4f, 2015-01-01 01:04:21.220, 0.394, -0.323, -1.184, -2.38, -1.77, 163.879, , , , , , , 179.824, -0.824, -135.176, -78.300, 13.100, -69.807, 20.5, 0.00616, 0.57556, -0.81766, -0.00171, 406, 100,
 19:46:22.784,e8:da:bf:c6:3e:4f, 2015-01-01 01:04:21.220, 0.224, -0.304, -1.098, -3.479, -2.869, 161.865, , , , , , , 179.808, -0.813, -136.807, -78.300, 13.100, -69.807, 20.5, 0.00616, 0.57556, -0.81766, -0.00171, 406, 100,
 19:46:22.801,e8:da:bf:c6:3e:4f, 2015-01-01 01:04:21.220, 0.03, -0.325, -0.826, -0.427, -1.709, 155.701, , , , , , , 179.808, -0.791, -138.395, -78.300, 13.100, -69.807, 20.5, 0.00616, 0.57556, -0.81766, -0.00171, 406, 100,
 19:46:22.801,e8:da:bf:c6:3e:4f, 2015-01-01 01:04:21.220, -0.04, -0.345, -0.767, 2.441, -0.977, 158.203, , , , , , , 179.835, -0.791, -139.96, -78.300, 13.100, -69.807, 20.5, 0.00616, 0.57556, -0.81766, -0.00171, 406, 100,
 19:46:22.801,e8:da:bf:c6:3e:4f, 2015-01-01 01:04:21.220, 0.018, -0.332, -1.02, 0.977, -1.831, 162.903, , , , , , , 179.874, -0.78, -141.575, -78.300, 13.100, -69.807, 20.5, 0.00616, 0.57556, -0.81766, -0.00171, 406, 100,
 19:46:22.801,e8:da:bf:c6:3e:4f, 2015-01-01 01:04:21.220, 0.025, -0.312, -1.215, -2.319, -2.991, 160.095, , , , , , , 179.879, -0.769, -143.196, -78.300, 13.100, -69.807, 20.5, 0.00616, 0.57556, -0.81766, -0.00171, 406, 100,
 19:46:22.801,e8:da:bf:c6:3e:4f, 2015-01-01 01:04:21.220, -0.216, -0.316, -1.106, -3.235, -2.563, 154.48, , , , , , , 179.863, -0.742, -144.767, -78.300, 13.100, -69.807, 20.5, 0.00616, 0.57556, -0.81766, -0.00171, 406, 100,
 19:46:22.802,e8:da:bf:c6:3e:4f, 2015-01-01 01:04:21.220, -0.53, -0.349, -0.806, -0.244, -0.61, 157.532, , , , , , , 179.857, -0.736, -146.31, -78.300, 13.100, -69.807, 20.5, 0.00616, 0.57556, -0.81766, -0.00171, 406, 100,
 19:46:22.802,e8:da:bf:c6:3e:4f, 2015-01-01 01:04:21.220, -0.411, -0.377, -0.787, 2.38, -1.648, 177.856, , , , , , , 179.89, -0.725, -148.008, -78.300, 13.100, -69.807, 20.5, 0.00616, 0.57556, -0.81766, -0.00171, 406, 100,
 19:46:22.802,e8:da:bf:c6:3e:4f, 2015-01-01 01:04:21.220, -0.38, -0.374, -1.036, 0.061, -1.16, 178.223, , , , , , , 179.923, -0.72, -149.799, -78.300, 13.100, -69.807, 20.5, 0.00616, 0.57556, -0.81766, -0.00171, 406, 100,
 19:46:22.986,e8:da:bf:c6:3e:4f, 2015-01-01 01:04:21.220, -0.279, -0.408, -1.159, -2.319, -0.061, 184.753, , , , , , , 179.923, -0.714, -151.606, -78.300, 13.100, -69.807, 20.5, 0.00555, 0.17953, -0.98367, -0.00171, 406, 100,
 19:46:23.284,e8:da:bf:c6:3e:4f, 2015-01-01 01:04:21.220, -0.127, -0.462, -1.003, -1.404, 2.136, 190.491, , , , , , , 179.923, -0.736, -153.495, -78.300, 13.100, -69.807, 20.58, 0.00555, 0.17953, -0.98367, -0.00101, 405, 100,
 19:46:23.387,e8:da:bf:c6:3e:4f, 2015-01-01 01:04:21.700, 0.016, -0.484, -0.872, 0.61, 0.916, 192.2, , , , , , , 179.94, -0.764, -155.413, -78.300, 13.100, -69.807, 20.58, 0.00555, 0.17953, -0.98367, -0.00101, 405, 100,
 19:46:23.387,e8:da:bf:c6:3e:4f, 2015-01-01 01:04:21.700, 0.068, -0.456, -0.959, 0.305, -0.488, 192.932, , , , , , , 179.967, -0.769, -157.341, -78.300, 13.100, -69.807, 20.58, 0.00558, 0.31061, -0.95047, -0.00089, 405, 100,
 19:46:23.403,e8:da:bf:c6:3e:4f, 2015-01-01 01:04:21.700, 0.915, -0.423, -1.048, -1.587, 5.188, 202.82, , , , , , , 179.978, -0.797, -159.307, -78.300, 13.100, -69.807, 20.58, 0.00558, 0.31061, -0.95047, -0.00089, 405, 100,
 19:46:23.403,e8:da:bf:c6:3e:4f, 2015-01-01 01:04:21.700, 2.678, -0.394, -0.997, 3.906, -6.042, 202.576, , , , , , , -179.995, -0.797, -161.411, -78.300, 13.100, -69.807, 20.58, 0.00558, 0.31061, -0.95047, -0.00089, 405, 100,
 19:46:23.403,e8:da:bf:c6:3e:4f, 2015-01-01 01:04:21.700, 3.562, -0.26, -0.917, 0.854, 5.066, 133.606, , , , , , , -179.951, -0.797, -163.048, -78.300, 13.100, -69.807, 20.58, 0.00558, 0.31061, -0.95047, -0.00089, 405, 100,
 19:46:23.403,e8:da:bf:c6:3e:4f, 2015-01-01 01:04:21.700, 4.385, -0.147, -0.962, 2.075, -0.244, 96.863, , , , , , , -179.929, -0.84, -164.202, -78.300, 13.100, -69.807, 20.58, 0.00558, 0.31061, -0.95047, -0.00089, 405, 100,
 19:46:23.403,e8:da:bf:c6:3e:4f, 2015-01-01 01:04:21.700, 3.901, -0.007, -1.044, -0.061, -5.066, 14.648, , , , , , , -179.907, -0.802, -164.724, -78.300, 13.100, -69.807, 20.58, 0.00558, 0.31061, -0.95047, -0.00089, 405, 100,
 19:46:23.403,e8:da:bf:c6:3e:4f, 2015-01-01 01:04:21.700, 2.921, 0.02, -1.033, -1.099, -8.728, -32.471, , , , , , , -179.918, -0.736, -164.597, -78.300, 13.100, -69.807, 20.58, 0.00558, 0.31061, -0.95047, -0.00089, 405, 100,
 19:46:23.403,e8:da:bf:c6:3e:4f, 2015-01-01 01:04:21.700, 1.216, 0.003, -0.903, -1.099, -5.371, -83.374, , , , , , , -179.934, -0.643, -163.982, -78.300, 13.100, -69.807, 20.58, 0.00558, 0.31061, -0.95047, -0.00089, 405, 100,
 19:46:23.404,e8:da:bf:c6:3e:4f, 2015-01-01 01:04:21.700, -0.005, -0.02, -0.855, -0.183, -0.488, -92.224, , , , , , , -179.951, -0.637, -163.07, -78.300, 13.100, -69.807, 20.58, 0.00558, 0.31061, -0.95047, -0.00089, 405, 100,
 19:46:23.404,e8:da:bf:c6:3e:4f, 2015-01-01 01:04:21.700, -1.061, -0.029, -1.031, -0.61, -6.775, -90.759, , , , , , , -179.956, -0.61, -162.164, -78.300, 13.100, -69.807, 20.58, 0.00558, 0.31061, -0.95047, -0.00089, 405, 100,
 19:46:23.404,e8:da:bf:c6:3e:4f, 2015-01-01 01:04:21.700, -2.151, -0.06, -1.246, -5.432, -4.272, -74.768, , , , , , , -179.995, -0.538, -161.301, -78.300, 13.100, -69.807, 20.58, 0.00558, 0.31061, -0.95047, -0.00089, 405, 100,
 19:46:23.404,e8:da:bf:c6:3e:4f, 2015-01-01 01:04:21.700, -2.661, -0.108, -1.159, -5.676, -2.075, -30.64, , , , , , , 179.945, -0.511, -160.796, -78.300, 13.100, -69.807, 20.58, 0.00558, 0.31061, -0.95047, -0.00089, 405, 100,
 19:46:23.404,e8:da:bf:c6:3e:4f, 2015-01-01 01:04:21.700, -2.438, -0.132, -0.761, -0.366, 3.418, 10.376, , , , , , , 179.912, -0.516, -160.714, -78.300, 13.100, -69.807, 20.58, 0.00558, 0.31061, -0.95047, -0.00089, 405, 100,
 19:46:23.404,e8:da:bf:c6:3e:4f, 2015-01-01 01:04:21.700, -1.427, -0.107, -0.539, 4.456, 8.911, 51.636, , , , , , , 179.94, -0.588, -161.06, -78.300, 13.100, -69.807, 20.58, 0.00558, 0.31061, -0.95047, -0.00089, 405, 100,
 19:46:23.404,e8:da:bf:c6:3e:4f, 2015-01-01 01:04:21.700, -0.477, -0.029, -0.755, 5.066, 10.803, 66.467, , , , , , , 179.995, -0.687, -161.68, -78.300, 13.100, -69.807, 20.58, 0.00558, 0.31061, -0.95047, -0.00089, 405, 100,
 19:46:23.405,e8:da:bf:c6:3e:4f, 2015-01-01 01:04:21.700, 0.088, 0.009, -1.199, 1.587, 1.16, 70.923, , , , , , , -179.962, -0.753, -162.378, -78.300, 13.100, -69.807, 20.58, 0.00558, 0.31061, -0.95047, -0.00089, 405, 100,
 19:46:23.405,e8:da:bf:c6:3e:4f, 2015-01-01 01:04:21.700, 0.753, -0.012, -1.345, -3.723, 6.165, 75.134, , , , , , , -179.973, -0.78, -163.098, -78.300, 13.100, -69.807, 20.58, 0.00558, 0.31061, -0.95047, -0.00089, 405, 100,
 19:46:23.405,e8:da:bf:c6:3e:4f, 2015-01-01 01:04:21.700, 2.34, -0.074, -1.028, 1.709, -5.249, 75.684, , , , , , , -179.984, -0.786, -163.9, -78.300, 13.100, -69.807, 20.58, 0.00558, 0.31061, -0.95047, -0.00089, 405, 100,
 19:46:23.405,e8:da:bf:c6:3e:4f, 2015-01-01 01:04:21.700, 2.487, -0.023, -0.783, 2.441, 0.854, 6.165, , , , , , , -179.945, -0.764, -164.301, -78.300, 13.100, -69.807, 20.58, 0.00558, 0.31061, -0.95047, -0.00089, 405, 100,
 19:46:23.405,e8:da:bf:c6:3e:4f, 2015-01-01 01:04:21.700, 2.216, 0.021, -0.954, 1.465, -4.028, -20.935, , , , , , , -179.929, -0.753, -164.207, -78.300, 13.100, -69.807, 20.58, 0.00558, 0.31061, -0.95047, -0.00089, 405, 100,
 19:46:23.406,e8:da:bf:c6:3e:4f, 2015-01-01 01:04:21.700, 1.137, 0.052, -1.138, -2.808, -3.906, -62.256, , , , , , , -179.94, -0.698, -163.768, -78.300, 13.100, -69.807, 20.58, 0.00558, 0.31061, -0.95047, -0.00089, 405, 100,
 19:46:23.406,e8:da:bf:c6:3e:4f, 2015-01-01 01:04:21.700, 0.246, 0.001, -0.998, -2.441, -1.221, -71.655, , , , , , , -179.978, -0.698, -163.07, -78.300, 13.100, -69.807, 20.58, 0.00558, 0.31061, -0.95047, -0.00089, 405, 100,
 19:46:23.406,e8:da:bf:c6:3e:4f, 2015-01-01 01:04:21.700, -0.182, -0.037, -0.854, 0.122, -0.061, -71.289, , , , , , , -179.995, -0.681, -162.356, -78.300, 13.100, -69.807, 20.58, 0.00558, 0.31061, -0.95047, -0.00089, 405, 100,
 19:46:23.406,e8:da:bf:c6:3e:4f, 2015-01-01 01:04:21.700, -0.669, -0.06, -0.874, 1.831, -5.676, -71.777, , , , , , , -179.989, -0.659, -161.647, -78.300, 13.100, -69.807, 20.58, 0.00558, 0.31061, -0.95047, -0.00089, 405, 100,
 19:46:23.406,e8:da:bf:c6:3e:4f, 2015-01-01 01:04:21.700, -1.702, -0.052, -1.159, -1.648, -4.578, -66.467, , , , , , , -179.995, -0.593, -160.939, -78.300, 13.100, -69.807, 20.58, 0.00558, 0.31061, -0.95047, -0.00089, 405, 100,
 19:46:23.407,e8:da:bf:c6:3e:4f, 2015-01-01 01:04:21.700, -2.462, -0.065, -1.301, -5.249, -4.639, -30.334, , , , , , , 179.967, -0.549, -160.461, -78.300, 13.100, -69.807, 20.58, 0.00558, 0.31061, -0.95047, -0.00089, 405, 100,
 19:46:23.407,e8:da:bf:c6:3e:4f, 2015-01-01 01:04:21.700, -2.372, -0.085, -0.918, -2.869, 2.93, 13, , , , , , , 179.923, -0.544, -160.4, -78.300, 13.100, -69.807, 20.58, 0.00558, 0.31061, -0.95047, -0.00089, 405, 100,
 19:46:23.407,e8:da:bf:c6:3e:4f, 2015-01-01 01:04:21.700, -1.343, -0.108, -0.466, 2.93, 8.667, 56.091, , , , , , , 179.929, -0.61, -160.785, -78.300, 13.100, -69.807, 20.58, 0.00558, 0.31061, -0.95047, -0.00089, 405, 100,
 19:46:23.407,e8:da:bf:c6:3e:4f, 2015-01-01 01:04:21.700, -0.416, -0.068, -0.552, 7.446, 9.888, 67.81, , , , , , , 179.989, -0.703, -161.433, -78.300, 13.100, -69.807, 20.58, 0.00558, 0.31061, -0.95047, -0.00089, 405, 100,
 19:46:23.407,e8:da:bf:c6:3e:4f, 2015-01-01 01:04:21.700, 0.102, -0.018, -1.178, 3.052, 0.671, 70.74, , , , , , , -179.945, -0.764, -162.131, -78.300, 13.100, -69.807, 20.58, 0.00558, 0.31061, -0.95047, -0.00089, 405, 100,
 19:46:23.418,e8:da:bf:c6:3e:4f, 2015-01-01 01:04:21.700, 0.42, -0.007, -1.546, -5.127, 4.761, 72.083, , , , , , , -179.956, -0.775, -162.839, -78.300, 13.100, -69.807, 20.58, 0.00558, 0.31061, -0.95047, -0.00089, 405, 100,
 19:46:23.418,e8:da:bf:c6:3e:4f, 2015-01-01 01:04:21.700, 1.897, -0.052, -1.146, -2.563, -3.174, 81.421, , , , , , , -179.995, -0.807, -163.625, -78.300, 13.100, -69.807, 20.58, 0.00558, 0.31061, -0.95047, -0.00089, 405, 100,
 19:46:23.418,e8:da:bf:c6:3e:4f, 2015-01-01 01:04:21.700, 2.467, -0.02, -0.67, 4.333, -0.244, 29.358, , , , , , , -179.967, -0.769, -164.213, -78.300, 13.100, -69.807, 20.58, 0.00558, 0.31061, -0.95047, -0.00089, 405, 100,
 19:46:23.418,e8:da:bf:c6:3e:4f, 2015-01-01 01:04:21.700, 2.787, 0.019, -0.777, 3.357, 1.343, -5.798, , , , , , , -179.929, -0.797, -164.262, -78.300, 13.100, -69.807, 20.58, 0.00558, 0.31061, -0.95047, -0.00089, 405, 100,
 19:46:23.418,e8:da:bf:c6:3e:4f, 2015-01-01 01:04:21.700, 2.153, 0.062, -1.189, -1.038, -6.287, -55.786, , , , , , , -179.912, -0.753, -163.965, -78.300, 13.100, -69.807, 20.58, 0.00558, 0.31061, -0.95047, -0.00089, 405, 100,
 19:46:23.418,e8:da:bf:c6:3e:4f, 2015-01-01 01:04:21.700, 1.474, -0.002, -1.194, -5.92, -2.014, -80.627, , , , , , , -179.967, -0.725, -163.229, -78.300, 13.100, -69.807, 20.58, 0.00558, 0.31061, -0.95047, -0.00089, 405, 100,
 19:46:23.419,e8:da:bf:c6:3e:4f, 2015-01-01 01:04:21.700, 0.844, -0.089, -0.783, 0, -0.977, -97.412, , , , , , , 179.995, -0.698, -162.35, -78.300, 13.100, -69.807, 20.58, 0.00558, 0.31061, -0.95047, -0.00089, 405, 100,
 19:46:23.419,e8:da:bf:c6:3e:4f, 2015-01-01 01:04:21.700, 0.224, -0.133, -0.599, 5.859, 0.244, -115.173, , , , , , , -179.978, -0.709, -161.263, -78.300, 13.100, -69.807, 20.58, 0.00558, 0.31061, -0.95047, -0.00089, 405, 100,
 19:46:23.419,e8:da:bf:c6:3e:4f, 2015-01-01 01:04:21.700, -0.156, -0.106, -1.069, 2.075, 0.732, -117.31, , , , , , , -179.945, -0.703, -160.093, -78.300, 13.100, -69.807, 20.58, 0.00558, 0.31061, -0.95047, -0.00089, 405, 100,
 19:46:23.419,e8:da:bf:c6:3e:4f, 2015-01-01 01:04:21.700, -0.283, -0.099, -1.448, -4.639, 1.038, -110.84, , , , , , , -179.973, -0.714, -158.95, -78.300, 13.100, -69.807, 20.58, 0.00558, 0.31061, -0.95047, -0.00089, 405, 100,
 19:46:23.419,e8:da:bf:c6:3e:4f, 2015-01-01 01:04:21.700, -0.142, -0.134, -1.184, -5.249, 0.977, -98.999, , , , , , , 179.962, -0.72, -157.912, -78.300, 13.100, -69.807, 20.58, 0.00558, 0.31061, -0.95047, -0.00089, 405, 100,
 19:46:23.419,e8:da:bf:c6:3e:4f, 2015-01-01 01:04:21.700, -0.002, -0.162, -0.636, 1.038, 1.099, -96.68, , , , , , , 179.929, -0.731, -156.945, -78.300, 13.100, -69.807, 20.58, 0.00558, 0.31061, -0.95047, -0.00089, 405, 100,
 19:46:23.419,e8:da:bf:c6:3e:4f, 2015-01-01 01:04:21.700, -0.009, -0.136, -0.584, 6.226, 0.366, -99.792, , , , , , , 179.967, -0.736, -155.962, -78.300, 13.100, -69.807, 20.58, 0.00558, 0.31061, -0.95047, -0.00089, 405, 100,
 19:46:23.420,e8:da:bf:c6:3e:4f, 2015-01-01 01:04:21.700, -0.043, -0.087, -1.094, 2.075, 2.686, -97.534, , , , , , , -179.995, -0.747, -154.973, -78.300, 13.100, -69.807, 20.58, 0.00558, 0.31061, -0.95047, -0.00089, 405, 100,
 19:46:23.420,e8:da:bf:c6:3e:4f, 2015-01-01 01:04:21.700, 0.357, -0.099, -1.364, -3.235, 3.662, -85.51, , , , , , , 179.984, -0.786, -154.056, -78.300, 13.100, -69.807, 20.58, 0.00558, 0.31061, -0.95047, -0.00089, 405, 100,
 19:46:23.420,e8:da:bf:c6:3e:4f, 2015-01-01 01:04:21.700, 1.152, -0.135, -1.099, -1.343, -4.333, -86.06, , , , , , , 179.945, -0.786, -153.243, -78.300, 13.100, -69.807, 20.58, 0.00558, 0.31061, -0.95047, -0.00089, 405, 100,
 19:46:23.420,e8:da:bf:c6:3e:4f, 2015-01-01 01:04:21.700, 0.917, -0.156, -0.811, 0.671, 1.404, -130.188, , , , , , , 179.934, -0.758, -152.133, -78.300, 13.100, -69.807, 20.58, 0.00558, 0.31061, -0.95047, -0.00089, 405, 100,
 19:46:23.420,e8:da:bf:c6:3e:4f, 2015-01-01 01:04:21.700, 0.976, -0.19, -0.877, 1.221, 0.732, -129.639, , , , , , , 179.934, -0.78, -150.804, -78.300, 13.100, -69.807, 20.58, 0.00558, 0.31061, -0.95047, -0.00089, 405, 100,
 19:46:23.420,e8:da:bf:c6:3e:4f, 2015-01-01 01:04:21.700, 0.87, -0.183, -1.053, 0, -1.587, -144.714, , , , , , , 179.929, -0.758, -149.464, -78.300, 13.100, -69.807, 20.58, 0.00558, 0.31061, -0.95047, -0.00089, 405, 100,
 19:46:23.420,e8:da:bf:c6:3e:4f, 2015-01-01 01:04:21.700, 0.295, -0.226, -1.022, -1.77, 2.38, -166.565, , , , , , , 179.896, -0.764, -147.87, -78.300, 13.100, -69.807, 20.58, 0.00558, 0.31061, -0.95047, -0.00089, 405, 100,
 19:46:23.420,e8:da:bf:c6:3e:4f, 2015-01-01 01:04:21.700, -0.009, -0.314, -0.792, 2.38, -0.122, -163.147, , , , , , , 179.885, -0.764, -146.223, -78.300, 13.100, -69.807, 20.58, 0.00558, 0.31061, -0.95047, -0.00089, 405, 100,
 19:46:23.421,e8:da:bf:c6:3e:4f, 2015-01-01 01:04:21.700, -0.106, -0.342, -0.874, 3.54, 0.854, -161.255, , , , , , , 179.901, -0.769, -144.602, -78.300, 13.100, -69.807, 20.58, 0.00558, 0.31061, -0.95047, -0.00089, 405, 100,
 19:46:23.421,e8:da:bf:c6:3e:4f, 2015-01-01 01:04:21.700, -0.102, -0.323, -1.167, 0.183, 1.16, -158.997, , , , , , , 179.907, -0.769, -143.004, -78.300, 13.100, -69.807, 20.58, 0.00558, 0.31061, -0.95047, -0.00089, 405, 100,
 19:46:23.437,e8:da:bf:c6:3e:4f, 2015-01-01 01:04:21.700, -0.063, -0.303, -1.247, -2.93, 1.282, -156.555, , , , , , , 179.874, -0.78, -141.427, -78.300, 13.100, -69.807, 20.58, 0.00558, 0.31061, -0.95047, -0.00089, 405, 100,
 19:46:23.437,e8:da:bf:c6:3e:4f, 2015-01-01 01:04:21.700, 0.008, -0.302, -1, -2.014, 2.258, -153.687, , , , , , , 179.83, -0.791, -139.878, -78.300, 13.100, -69.807, 20.58, 0.00558, 0.31061, -0.95047, -0.00089, 405, 100,
 19:46:23.437,e8:da:bf:c6:3e:4f, 2015-01-01 01:04:21.700, 0.168, -0.306, -0.731, 1.77, 2.686, -150.024, , , , , , , 179.813, -0.813, -138.362, -78.300, 13.100, -69.807, 20.58, 0.00558, 0.31061, -0.95047, -0.00089, 405, 100,
 19:46:23.437,e8:da:bf:c6:3e:4f, 2015-01-01 01:04:21.700, 0.451, -0.294, -0.767, 4.089, 2.502, -151.001, , , , , , , 179.83, -0.829, -136.868, -78.300, 13.100, -69.807, 20.58, 0.00558, 0.31061, -0.95047, -0.00089, 405, 100,
 19:46:23.462,e8:da:bf:c6:3e:4f, 2015-01-01 01:04:22.115, 0.559, -0.284, -1.061, 1.831, 0.427, -162.415, , , , , , , 179.846, -0.84, -135.302, -78.300, 13.100, -69.807, 20.58, 0.00558, 0.31061, -0.95047, -0.00089, 405, 100,
 19:46:23.462,e8:da:bf:c6:3e:4f, 2015-01-01 01:04:22.115, 0.513, -0.327, -1.23, -2.014, -0.549, -173.95, , , , , , , 179.819, -0.824, -133.605, -78.300, 13.100, -69.807, 20.58, 0.00558, 0.31061, -0.95047, -0.00089, 405, 100,
 19:46:23.463,e8:da:bf:c6:3e:4f, 2015-01-01 01:04:22.115, 0.424, -0.391, -1.052, -1.282, 0.183, -178.772, , , , , , , 179.78, -0.818, -131.841, -78.300, 13.100, -69.807, 20.58, 0.00558, 0.31061, -0.95047, -0.00089, 405, 100,
 19:46:23.463,e8:da:bf:c6:3e:4f, 2015-01-01 01:04:22.115, 0.241, -0.425, -0.845, 1.038, 1.587, -186.401, , , , , , , 179.758, -0.818, -130.012, -78.300, 13.100, -69.807, 20.58, 0.00558, 0.31061, -0.95047, -0.00089, 405, 100,
 19:46:23.479,e8:da:bf:c6:3e:4f, 2015-01-01 01:04:22.115, 0.081, -0.42, -0.847, 2.258, -0.366, -189.758, , , , , , , 179.758, -0.818, -128.128, -78.300, 13.100, -69.807, 20.58, 0.00558, 0.31061, -0.95047, -0.00089, 405, 100,
 19:46:23.479,e8:da:bf:c6:3e:4f, 2015-01-01 01:04:22.115, -0.054, -0.399, -1.008, 0.793, 0, -192.139, , , , , , , 179.753, -0.797, -126.216, -78.300, 13.100, -69.807, 20.58, 0.00558, 0.31061, -0.95047, -0.00089, 405, 100,
 19:46:23.479,e8:da:bf:c6:3e:4f, 2015-01-01 01:04:22.115, -0.123, -0.404, -1.074, -0.732, 0.916, -190.002, , , , , , , 179.731, -0.797, -124.305, -78.300, 13.100, -69.807, 20.58, 0.00558, 0.31061, -0.95047, -0.00089, 405, 100,
 19:46:23.479,e8:da:bf:c6:3e:4f, 2015-01-01 01:04:22.115, -0.106, -0.434, -0.961, 0.305, 1.16, -185.242, , , , , , , 179.709, -0.791, -122.437, -78.300, 13.100, -69.807, 20.58, 0.00558, 0.31061, -0.95047, -0.00089, 405, 100,
 19:46:23.607,e8:da:bf:c6:3e:4f, 2015-01-01 01:04:22.115, -0.051, -0.453, -0.901, 2.197, 1.16, -181.702, , , , , , , 179.703, -0.797, -120.602, -78.300, 13.100, -69.807, 20.58, 0.00558, 0.31061, -0.95047, -0.00089, 405, 100,
 19:46:23.622,e8:da:bf:c6:3e:4f, 2015-01-01 01:04:22.115, -0.039, -0.434, -1.033, 1.099, 0.916, -181.702, , , , , , , 179.703, -0.791, -118.79, -78.300, 13.100, -69.807, 20.58, 0.00558, 0.31061, -0.95047, -0.00089, 405, 100,
 19:46:23.622,e8:da:bf:c6:3e:4f, 2015-01-01 01:04:22.115, -0.042, -0.402, -1.136, -1.221, 0.793, -181.152, , , , , , , 179.681, -0.797, -116.977, -78.300, 13.100, -69.807, 20.58, 0.00558, 0.31061, -0.95047, -0.00089, 405, 100,
 19:46:23.622,e8:da:bf:c6:3e:4f, 2015-01-01 01:04:22.115, -0.054, -0.383, -1.026, -1.404, 0.854, -180.115, , , , , , , 179.648, -0.786, -115.175, -78.300, 13.100, -69.807, 20.58, 0.00558, 0.31061, -0.95047, -0.00089, 405, 100,
 19:46:23.638,e8:da:bf:c6:3e:4f, 2015-01-01 01:04:22.115, -0.049, -0.383, -0.831, 0.916, 1.221, -178.589, , , , , , , 179.626, -0.786, -113.379, -78.300, 13.100, -69.807, 20.58, 0.00558, 0.31061, -0.95047, -0.00089, 405, 100,
 19:46:23.638,e8:da:bf:c6:3e:4f, 2015-01-01 01:04:22.115, -0.011, -0.389, -0.812, 2.991, 1.953, -176.514, , , , , , , 179.632, -0.786, -111.605, -78.300, 13.100, -69.807, 20.58, 0.00558, 0.31061, -0.95047, -0.00089, 405, 100,
 19:46:23.638,e8:da:bf:c6:3e:4f, 2015-01-01 01:04:22.115, 0.051, -0.39, -1.021, 1.709, 1.77, -174.744, , , , , , , 179.637, -0.797, -109.852, -78.300, 13.100, -69.807, 20.58, 0.00558, 0.31061, -0.95047, -0.00089, 405, 100,
 19:46:23.638,e8:da:bf:c6:3e:4f, 2015-01-01 01:04:22.115, 0.155, -0.395, -1.169, -0.793, 0.549, -173.95, , , , , , , 179.621, -0.791, -108.116, -78.300, 13.100, -69.807, 20.58, 0.00558, 0.31061, -0.95047, -0.00089, 405, 100,
 19:46:23.638,e8:da:bf:c6:3e:4f, 2015-01-01 01:04:22.115, 0.081, -0.4, -1.047, -0.916, 0, -181.274, , , , , , , 179.594, -0.786, -106.342, -78.300, 13.100, -69.807, 20.58, 0.00558, 0.31061, -0.95047, -0.00089, 405, 100,
 19:46:23.638,e8:da:bf:c6:3e:4f, 2015-01-01 01:04:22.115, -0.045, -0.407, -0.88, 0.793, 0.61, -183.472, , , , , , , 179.572, -0.769, -104.513, -78.300, 13.100, -69.807, 20.58, 0.00558, 0.31061, -0.95047, -0.00089, 405, 100,
 19:46:23.638,e8:da:bf:c6:3e:4f, 2015-01-01 01:04:22.115, -0.068, -0.398, -0.873, 1.831, 0.916, -179.932, , , , , , , 179.572, -0.764, -102.7, -78.300, 13.100, -69.807, 20.58, 0.00558, 0.31061, -0.95047, -0.00089, 405, 100,
 19:46:23.638,e8:da:bf:c6:3e:4f, 2015-01-01 01:04:22.115, -0.052, -0.38, -0.993, 0.854, 0.488, -178.833, , , , , , , 179.566, -0.753, -100.909, -78.300, 13.100, -69.807, 20.58, 0.00558, 0.31061, -0.95047, -0.00089, 405, 100,
 19:46:23.698,e8:da:bf:c6:3e:4f, 2015-01-01 01:04:22.115, -0.485, -0.352, -1.031, 0.122, -5.92, -186.096, , , , , , , 179.555, -0.714, -99.097, -78.300, 13.100, -69.807, 20.58, 0.00558, 0.31061, -0.95047, -0.00089, 405, 100,
 19:46:23.699,e8:da:bf:c6:3e:4f, 2015-01-01 01:04:22.115, -2.427, -0.352, -1.074, 1.404, -4.395, -200.195, , , , , , , 179.539, -0.626, -97.13, -78.300, 13.100, -69.807, 20.58, 0.00558, 0.31061, -0.95047, -0.00089, 405, 100,
 19:46:23.699,e8:da:bf:c6:3e:4f, 2015-01-01 01:04:22.115, -3.368, -0.373, -1.093, -0.427, -5.676, -131.836, , , , , , , 179.544, -0.571, -95.466, -78.300, 13.100, -69.807, 20.58, 0.00558, 0.31061, -0.95047, -0.00089, 405, 100,
 19:46:23.700,e8:da:bf:c6:3e:4f, 2015-01-01 01:04:22.115, -4.157, -0.309, -0.993, -0.488, -3.113, -91.675, , , , , , , 179.517, -0.505, -94.395, -78.300, 13.100, -69.807, 20.58, 0.00558, 0.31061, -0.95047, -0.00089, 405, 100,
 19:46:23.716,e8:da:bf:c6:3e:4f, 2015-01-01 01:04:22.115, -3.502, -0.236, -0.816, 0.549, 4.822, -10.315, , , , , , , 179.533, -0.522, -93.873, -78.300, 13.100, -69.807, 20.58, 0.00558, 0.31061, -0.95047, -0.00089, 405, 100,
 19:46:23.717,e8:da:bf:c6:3e:4f, 2015-01-01 01:04:22.115, -2.549, -0.149, -0.828, -1.038, 7.874, 30.029, , , , , , , 179.517, -0.582, -94.026, -78.300, 13.100, -69.807, 20.58, 0.00558, 0.31061, -0.95047, -0.00089, 405, 100,
 19:46:23.718,e8:da:bf:c6:3e:4f, 2015-01-01 01:04:22.115, -0.99, -0.097, -0.934, -2.258, 10.132, 74.036, , , , , , , 179.517, -0.692, -94.565, -78.300, 13.100, -69.807, 20.58, 0.00558, 0.31061, -0.95047, -0.00089, 405, 100,
 19:46:23.718,e8:da:bf:c6:3e:4f, 2015-01-01 01:04:22.115, 0.079, -0.043, -0.901, 0.183, 4.028, 82.458, , , , , , , 179.5, -0.758, -95.394, -78.300, 13.100, -69.807, 20.58, 0.00558, 0.31061, -0.95047, -0.00089, 405, 100,
 19:46:23.734,e8:da:bf:c6:3e:4f, 2015-01-01 01:04:22.115, 0.479, -0.023, -0.925, 3.235, 2.991, 72.937, , , , , , , 179.533, -0.791, -96.163, -78.300, 13.100, -69.807, 20.58, 0.008, 0.65768, -0.75317, -0.0011, 405, 100,
 19:46:23.734,e8:da:bf:c6:3e:4f, 2015-01-01 01:04:22.115, 1.185, -0.018, -1.254, -0.671, 2.38, 72.998, , , , , , , 179.561, -0.835, -96.888, -78.300, 13.100, -69.807, 20.58, 0.008, 0.65768, -0.75317, -0.0011, 405, 100,
 19:46:23.735,e8:da:bf:c6:3e:4f, 2015-01-01 01:04:22.115, 1.768, 0.024, -1.397, -4.944, -4.883, 52.063, , , , , , , 179.533, -0.813, -97.542, -78.300, 13.100, -69.807, 20.58, 0.008, 0.65768, -0.75317, -0.0011, 405, 100,
 19:46:23.735,e8:da:bf:c6:3e:4f, 2015-01-01 01:04:22.115, 1.555, 0.047, -0.97, -4.944, -2.197, 12.329, , , , , , , 179.478, -0.786, -97.828, -78.300, 13.100, -69.807, 20.58, 0.008, 0.65768, -0.75317, -0.0011, 405, 100,
 19:46:23.850,e8:da:bf:c6:3e:4f, 2015-01-01 01:04:22.445, 1.15, 0.036, -0.477, 3.54, -4.395, -6.042, , , , , , , 179.473, -0.753, -97.861, -78.300, 13.100, -69.807, 20.58, 0.008, 0.65768, -0.75317, -0.0011, 405, 100,
 19:46:23.851,e8:da:bf:c6:3e:4f, 2015-01-01 01:04:22.445, 0.405, 0.033, -0.59, 6.47, 1.709, -29.602, , , , , , , 179.528, -0.736, -97.668, -78.300, 13.100, -69.807, 20.58, 0.008, 0.65768, -0.75317, -0.0011, 405, 100,
 19:46:23.851,e8:da:bf:c6:3e:4f, 2015-01-01 01:04:22.445, -0.097, 0.026, -1.063, 3.784, -0.061, -33.325, , , , , , , 179.583, -0.736, -97.333, -78.300, 13.100, -69.807, 20.58, 0.008, 0.65768, -0.75317, -0.0011, 405, 100,
 19:46:23.851,e8:da:bf:c6:3e:4f, 2015-01-01 01:04:22.445, -0.383, 0.018, -1.44, -2.808, -2.014, -27.588, , , , , , , 179.583, -0.731, -97.037, -78.300, 13.100, -69.807, 20.58, 0.008, 0.65768, -0.75317, -0.0011, 405, 100,
 19:46:23.867,e8:da:bf:c6:3e:4f, 2015-01-01 01:04:22.445, -1.048, 0.001, -1.284, -5.066, -4.028, -26.367, , , , , , , 179.533, -0.687, -96.768, -78.300, 13.100, -69.807, 20.58, 0.008, 0.65768, -0.75317, -0.0011, 405, 100,
 19:46:23.867,e8:da:bf:c6:3e:4f, 2015-01-01 01:04:22.445, -1.369, -0.046, -0.958, -2.808, -1.099, -1.648, , , , , , , 179.495, -0.665, -96.614, -78.300, 13.100, -69.807, 20.58, 0.008, 0.65768, -0.75317, -0.0011, 405, 100,
 19:46:23.867,e8:da:bf:c6:3e:4f, 2015-01-01 01:04:22.445, -1.335, -0.063, -0.735, 0.305, 1.282, 21.484, , , , , , , 179.484, -0.665, -96.746, -78.300, 13.100, -69.807, 20.58, 0.008, 0.65768, -0.75317, -0.0011, 405, 100,
 19:46:23.867,e8:da:bf:c6:3e:4f, 2015-01-01 01:04:22.445, -0.705, -0.06, -0.751, 2.38, 4.761, 43.701, , , , , , , 179.5, -0.709, -97.075, -78.300, 13.100, -69.807, 20.58, 0.008, 0.65768, -0.75317, -0.0011, 405, 100,
 19:46:23.867,e8:da:bf:c6:3e:4f, 2015-01-01 01:04:22.445, -0.099, -0.015, -0.869, 2.991, 3.54, 55.664, , , , , , , 179.533, -0.747, -97.603, -78.300, 13.100, -69.807, 20.58, 0.008, 0.65768, -0.75317, -0.0011, 405, 100,
 19:46:23.867,e8:da:bf:c6:3e:4f, 2015-01-01 01:04:22.445, 0.156, 0.021, -1.107, 0.793, 0, 52.795, , , , , , , 179.561, -0.769, -98.146, -78.300, 13.100, -69.807, 20.58, 0.008, 0.65768, -0.75317, -0.0011, 405, 100,
 19:46:23.867,e8:da:bf:c6:3e:4f, 2015-01-01 01:04:22.445, 0.53, 0.001, -1.238, -2.197, 4.211, 55.542, , , , , , , 179.555, -0.797, -98.679, -78.300, 13.100, -69.807, 20.58, 0.008, 0.65768, -0.75317, -0.0011, 405, 100,
 19:46:23.867,e8:da:bf:c6:3e:4f, 2015-01-01 01:04:22.445, 1.58, -0.022, -1.206, -2.93, -3.235, 57.007, , , , , , , 179.533, -0.824, -99.272, -78.300, 13.100, -69.807, 20.58, 0.008, 0.65768, -0.75317, -0.0011, 405, 100,
 19:46:23.941,e8:da:bf:c6:3e:4f, 2015-01-01 01:04:22.445, 1.668, 0, -0.939, -2.136, -2.075, 10.498, , , , , , , 179.517, -0.786, -99.613, -78.300, 13.100, -69.807, 20.58, 0.008, 0.65768, -0.75317, -0.0011, 405, 100,
 19:46:23.941,e8:da:bf:c6:3e:4f, 2015-01-01 01:04:22.445, 1.445, 0.019, -0.719, 0.916, -1.587, -10.498, , , , , , , 179.506, -0.78, -99.569, -78.300, 13.100, -69.807, 20.58, 0.008, 0.65768, -0.75317, -0.0011, 405, 100,
 19:46:23.942,e8:da:bf:c6:3e:4f, 2015-01-01 01:04:22.445, 0.852, 0.062, -0.774, 2.808, -2.991, -33.264, , , , , , , 179.528, -0.742, -99.355, -78.300, 13.100, -69.807, 20.58, 0.008, 0.65768, -0.75317, -0.0011, 405, 100,
 19:46:23.943,e8:da:bf:c6:3e:4f, 2015-01-01 01:04:22.445, 0.142, 0.066, -0.934, 1.709, 1.099, -46.692, , , , , , , 179.544, -0.736, -98.932, -78.300, 13.100, -69.807, 20.58, 0.008, 0.65768, -0.75317, -0.0011, 405, 100,
 19:46:23.959,e8:da:bf:c6:3e:4f, 2015-01-01 01:04:22.445, -0.132, 0.01, -1.046, 1.221, -0.305, -43.213, , , , , , , 179.555, -0.731, -98.481, -78.300, 13.100, -69.807, 20.58, 0.008, 0.65768, -0.75317, -0.0011, 405, 100,
 19:46:23.960,e8:da:bf:c6:3e:4f, 2015-01-01 01:04:22.445, -0.173, -0.036, -1.104, 0.122, 0, -39.429, , , , , , , 179.561, -0.725, -98.069, -78.300, 13.100, -69.807, 20.58, 0.008, 0.65768, -0.75317, -0.0011, 405, 100,
 19:46:23.961,e8:da:bf:c6:3e:4f, 2015-01-01 01:04:22.445, -0.353, -0.032, -1.081, -0.488, -3.784, -39.307, , , , , , , 179.555, -0.703, -97.685, -78.300, 13.100, -69.807, 20.58, 0.008, 0.65768, -0.75317, -0.0011, 405, 100,
 19:46:23.961,e8:da:bf:c6:3e:4f, 2015-01-01 01:04:22.445, -1.021, -0.003, -1, -1.038, -1.526, -39.734, , , , , , , 179.544, -0.665, -97.278, -78.300, 13.100, -69.807, 20.58, 0.008, 0.65768, -0.75317, -0.0011, 405, 100,
 19:46:23.962,e8:da:bf:c6:3e:4f, 2015-01-01 01:04:22.445, -1.232, 0.001, -1.011, -1.099, 0, -11.658, , , , , , , 179.533, -0.665, -97.026, -78.300, 13.100, -69.807, 20.58, 0.008, 0.65768, -0.75317, -0.0011, 405, 100,
 19:46:23.962,e8:da:bf:c6:3e:4f, 2015-01-01 01:04:22.445, -1.344, -0.005, -1.02, -2.38, -0.183, 2.563, , , , , , , 179.511, -0.659, -97.004, -78.300, 13.100, -69.807, 20.58, 0.008, 0.65768, -0.75317, -0.0011, 405, 100,
 19:46:23.963,e8:da:bf:c6:3e:4f, 2015-01-01 01:04:22.445, -1.125, -0.051, -0.89, -0.61, 2.136, 24.292, , , , , , , 179.495, -0.67, -97.136, -78.300, 13.100, -69.807, 20.58, 0.008, 0.65768, -0.75317, -0.0011, 405, 100,
 19:46:23.964,e8:da:bf:c6:3e:4f, 2015-01-01 01:04:22.445, -0.914, -0.073, -0.779, 1.831, 1.709, 37.964, , , , , , , 179.506, -0.698, -97.476, -78.300, 13.100, -69.807, 20.58, 0.008, 0.65768, -0.75317, -0.0011, 405, 100,
 19:46:24.188,e8:da:bf:c6:3e:4f, 2015-01-01 01:04:22.445, -0.61, -0.064, -0.833, 4.272, 1.038, 53.406, , , , , , , 179.544, -0.714, -97.932, -78.300, 13.100, -69.807, 20.58, 0.008, 0.65768, -0.75317, -0.0011, 405, 100,
 19:46:24.188,e8:da:bf:c6:3e:4f, 2015-01-01 01:04:22.445, -0.31, -0.024, -1.141, 1.221, 0.854, 63.232, , , , , , , 179.583, -0.731, -98.536, -78.300, 13.100, -69.807, 20.58, 0.0069, 0.57245, -0.81985, -0.00137, 405, 100,
 19:46:24.189,e8:da:bf:c6:3e:4f, 2015-01-01 01:04:22.445, -0.219, -0.005, -1.352, -4.211, 0.061, 63.538, , , , , , , 179.566, -0.742, -99.174, -78.300, 13.100, -69.807, 20.58, 0.0069, 0.57245, -0.81985, -0.00137, 405, 100,
 19:46:24.189,e8:da:bf:c6:3e:4f, 2015-01-01 01:04:22.445, -0.273, -0.036, -1.081, -4.028, -1.526, 65.796, , , , , , , 179.528, -0.742, -99.822, -78.300, 13.100, -69.807, 20.58, 0.0069, 0.57245, -0.81985, -0.00137, 405, 100,
 19:46:24.189,e8:da:bf:c6:3e:4f, 2015-01-01 01:04:22.445, -0.374, -0.074, -0.679, 0.916, -1.465, 69.702, , , , , , , 179.522, -0.731, -100.503, -78.300, 13.100, -69.807, 20.58, 0.0069, 0.57245, -0.81985, -0.00137, 405, 100,
 19:46:24.189,e8:da:bf:c6:3e:4f, 2015-01-01 01:04:22.445, -0.566, -0.076, -0.662, 4.456, -2.136, 73.792, , , , , , , 179.561, -0.72, -101.223, -78.300, 13.100, -69.807, 20.58, 0.0069, 0.57245, -0.81985, -0.00137, 405, 100,
 19:46:24.189,e8:da:bf:c6:3e:4f, 2015-01-01 01:04:22.445, -0.702, -0.068, -1.068, 1.648, -0.305, 82.825, , , , , , , 179.599, -0.714, -102.008, -78.300, 13.100, -69.807, 20.58, 0.0069, 0.57245, -0.81985, -0.00137, 405, 100,
 19:46:24.189,e8:da:bf:c6:3e:4f, 2015-01-01 01:04:22.445, -0.703, -0.087, -1.361, -3.967, 0.793, 95.215, , , , , , , 179.594, -0.725, -102.909, -78.300, 13.100, -69.807, 20.58, 0.0069, 0.57245, -0.81985, -0.00137, 405, 100,
 19:46:24.205,e8:da:bf:c6:3e:4f, 2015-01-01 01:04:22.860, -0.667, -0.144, -1.155, -5.249, -1.282, 104.309, , , , , , , 179.55, -0.731, -103.914, -78.300, 13.100, -69.807, 20.58, 0.0069, 0.57245, -0.81985, -0.00137, 405, 100,
 19:46:24.205,e8:da:bf:c6:3e:4f, 2015-01-01 01:04:22.860, -0.558, -0.198, -0.745, -0.488, -0.488, 114.868, , , , , , , 179.533, -0.731, -105.013, -78.300, 13.100, -69.807, 20.58, 0.0069, 0.57245, -0.81985, -0.00137, 405, 100,
 19:46:24.205,e8:da:bf:c6:3e:4f, 2015-01-01 01:04:22.860, -0.428, -0.201, -0.583, 4.517, -0.122, 123.291, , , , , , , 179.566, -0.736, -106.216, -78.300, 13.100, -69.807, 20.58, 0.0069, 0.57245, -0.81985, -0.00137, 405, 100,
 19:46:24.205,e8:da:bf:c6:3e:4f, 2015-01-01 01:04:22.860, -0.383, -0.168, -0.895, 3.906, -0.366, 127.747, , , , , , , 179.632, -0.747, -107.479, -78.300, 13.100, -69.807, 20.58, 0.0069, 0.57245, -0.81985, -0.00137, 405, 100,
 19:46:24.205,e8:da:bf:c6:3e:4f, 2015-01-01 01:04:22.860, -0.404, -0.163, -1.316, -2.136, -0.916, 133.118, , , , , , , 179.648, -0.747, -108.787, -78.300, 13.100, -69.807, 20.58, 0.0069, 0.57245, -0.81985, -0.00137, 405, 100,
 19:46:24.205,e8:da:bf:c6:3e:4f, 2015-01-01 01:04:22.860, -0.469, -0.22, -1.25, -4.639, -1.648, 137.817, , , , , , , 179.621, -0.747, -110.143, -78.300, 13.100, -69.807, 20.58, 0.0069, 0.57245, -0.81985, -0.00137, 405, 100,
 19:46:24.205,e8:da:bf:c6:3e:4f, 2015-01-01 01:04:22.860, -0.37, -0.306, -0.847, -0.671, 1.099, 147.705, , , , , , , 179.61, -0.753, -111.577, -78.300, 13.100, -69.807, 20.58, 0.0069, 0.57245, -0.81985, -0.00137, 405, 100,
 19:46:24.205,e8:da:bf:c6:3e:4f, 2015-01-01 01:04:22.860, -0.146, -0.33, -0.724, 2.93, 1.526, 153.625, , , , , , , 179.637, -0.786, -113.093, -78.300, 13.100, -69.807, 20.58, 0.0069, 0.57245, -0.81985, -0.00137, 405, 100,
 19:46:24.206,e8:da:bf:c6:3e:4f, 2015-01-01 01:04:22.860, 0.043, -0.276, -1.073, -0.061, 0.061, 157.227, , , , , , , 179.676, -0.802, -114.653, -78.300, 13.100, -69.807, 20.58, 0.0069, 0.57245, -0.81985, -0.00137, 405, 100,
 19:46:24.206,e8:da:bf:c6:3e:4f, 2015-01-01 01:04:22.860, 0.132, -0.236, -1.246, -4.395, -0.61, 156.433, , , , , , , 179.665, -0.813, -116.23, -78.300, 13.100, -69.807, 20.58, 0.0069, 0.57245, -0.81985, -0.00137, 405, 100,
 19:46:24.206,e8:da:bf:c6:3e:4f, 2015-01-01 01:04:22.860, 0.126, -0.251, -0.981, -3.113, -0.427, 152.71, , , , , , , 179.637, -0.813, -117.779, -78.300, 13.100, -69.807, 20.58, 0.0069, 0.57245, -0.81985, -0.00137, 405, 100,
 19:46:24.206,e8:da:bf:c6:3e:4f, 2015-01-01 01:04:22.860, 0.039, -0.291, -0.686, 1.648, -1.282, 148.376, , , , , , , 179.648, -0.824, -119.279, -78.300, 13.100, -69.807, 20.58, 0.0069, 0.57245, -0.81985, -0.00137, 405, 100,
 19:46:24.206,e8:da:bf:c6:3e:4f, 2015-01-01 01:04:22.860, 0.008, -0.305, -0.775, 3.967, -2.136, 149.658, , , , , , , 179.703, -0.813, -120.767, -78.300, 13.100, -69.807, 20.58, 0.0069, 0.57245, -0.81985, -0.00137, 405, 100,
 19:46:24.206,e8:da:bf:c6:3e:4f, 2015-01-01 01:04:22.860, -0.029, -0.278, -1.17, 0.122, -2.136, 148.071, , , , , , , 179.742, -0.802, -122.261, -78.300, 13.100, -69.807, 20.58, 0.0069, 0.57245, -0.81985, -0.00137, 405, 100,
 19:46:24.206,e8:da:bf:c6:3e:4f, 2015-01-01 01:04:22.860, -0.14, -0.258, -1.322, -4.395, -2.563, 145.386, , , , , , , 179.731, -0.786, -123.734, -78.300, 13.100, -69.807, 20.58, 0.0069, 0.57245, -0.81985, -0.00137, 405, 100,
 19:46:24.206,e8:da:bf:c6:3e:4f, 2015-01-01 01:04:22.860, -0.509, -0.278, -1.016, -3.296, -2.747, 143.921, , , , , , , 179.698, -0.769, -125.173, -78.300, 13.100, -69.807, 20.58, 0.0069, 0.57245, -0.81985, -0.00137, 405, 100,
 19:46:24.303,e8:da:bf:c6:3e:4f, 2015-01-01 01:04:22.860, -0.451, -0.336, -0.689, 1.892, -1.282, 164.185, , , , , , , 179.714, -0.753, -126.716, -78.300, 13.100, -69.807, 20.58, 0.0069, 0.57245, -0.81985, -0.00137, 405, 100,
 19:46:24.303,e8:da:bf:c6:3e:4f, 2015-01-01 01:04:22.860, -0.5, -0.343, -0.819, 2.502, -0.61, 166.626, , , , , , , 179.758, -0.758, -128.397, -78.300, 13.100, -69.807, 20.58, 0.0069, 0.57245, -0.81985, -0.00137, 405, 100,
 19:46:24.303,e8:da:bf:c6:3e:4f, 2015-01-01 01:04:22.860, -0.374, -0.354, -1.135, -0.732, 0.427, 175.11, , , , , , , 179.786, -0.764, -130.089, -78.300, 13.100, -69.807, 20.58, 0.0069, 0.57245, -0.81985, -0.00137, 405, 100,
 19:46:24.303,e8:da:bf:c6:3e:4f, 2015-01-01 01:04:22.860, -0.126, -0.389, -1.184, -3.113, 1.221, 182.922, , , , , , , 179.78, -0.786, -131.902, -78.300, 13.100, -69.807, 20.58, 0.0069, 0.57245, -0.81985, -0.00137, 405, 100,
 19:46:24.332,e8:da:bf:c6:3e:4f, 2015-01-01 01:04:22.860, -0.012, -0.425, -0.964, -1.587, 0.549, 181.091, , , , , , , 179.775, -0.802, -133.726, -78.300, 13.100, -69.807, 20.58, 0.0069, 0.57245, -0.81985, -0.00137, 405, 100,
 19:46:24.332,e8:da:bf:c6:3e:4f, 2015-01-01 01:04:22.860, 0.054, -0.437, -0.853, 0.427, -0.549, 183.167, , , , , , , 179.791, -0.813, -135.544, -78.300, 13.100, -69.807, 20.58, 0.0069, 0.57245, -0.81985, -0.00137, 405, 100,
 19:46:24.333,e8:da:bf:c6:3e:4f, 2015-01-01 01:04:22.860, 0.089, -0.41, -0.955, 0, -0.977, 183.289, , , , , , , 179.813, -0.807, -137.384, -78.300, 13.100, -69.807, 20.58, 0.0069, 0.57245, -0.81985, -0.00137, 405, 100,
 19:46:24.333,e8:da:bf:c6:3e:4f, 2015-01-01 01:04:22.860, 0.101, -0.377, -1.061, -1.709, -0.854, 181.763, , , , , , , 179.824, -0.813, -139.213, -78.300, 13.100, -69.807, 20.58, 0.0069, 0.57245, -0.81985, -0.00137, 405, 100,
 19:46:24.333,e8:da:bf:c6:3e:4f, 2015-01-01 01:04:22.860, 0.093, -0.378, -0.987, -1.526, -1.16, 179.565, , , , , , , 179.824, -0.807, -141.021, -78.300, 13.100, -69.807, 20.58, 0.0069, 0.57245, -0.81985, -0.00137, 405, 100,
 19:46:24.333,e8:da:bf:c6:3e:4f, 2015-01-01 01:04:22.860, 0.064, -0.403, -0.875, 0.427, -1.282, 177.49, , , , , , , 179.841, -0.807, -142.806, -78.300, 13.100, -69.807, 20.58, 0.0069, 0.57245, -0.81985, -0.00137, 405, 100,
 19:46:24.333,e8:da:bf:c6:3e:4f, 2015-01-01 01:04:22.860, 0.059, -0.419, -0.93, 1.099, -1.16, 177.429, , , , , , , 179.874, -0.797, -144.58, -78.300, 13.100, -69.807, 20.58, 0.0069, 0.57245, -0.81985, -0.00137, 405, 100,
 19:46:24.333,e8:da:bf:c6:3e:4f, 2015-01-01 01:04:22.860, 0.061, -0.408, -1.099, -0.854, -0.916, 177.307, , , , , , , 179.89, -0.797, -146.36, -78.300, 13.100, -69.807, 20.58, 0.0069, 0.57245, -0.81985, -0.00137, 405, 100,
 19:46:24.438,e8:da:bf:c6:3e:4f, 2015-01-01 01:04:22.860, 0.033, -0.386, -1.133, -2.686, -1.404, 176.208, , , , , , , 179.89, -0.786, -148.129, -78.300, 13.100, -69.807, 20.58, 0.0069, 0.57245, -0.81985, -0.00137, 405, 100,
 19:46:24.438,e8:da:bf:c6:3e:4f, 2015-01-01 01:04:22.860, -0.009, -0.378, -0.969, -1.892, -1.892, 175.72, , , , , , , 179.885, -0.78, -149.886, -78.300, 13.100, -69.807, 20.58, 0.0069, 0.57245, -0.81985, -0.00137, 405, 100,
 19:46:24.438,e8:da:bf:c6:3e:4f, 2015-01-01 01:04:22.860, -0.048, -0.384, -0.818, 0.488, -2.441, 175.354, , , , , , , 179.896, -0.758, -151.65, -78.300, 13.100, -69.807, 20.58, 0.0069, 0.57245, -0.81985, -0.00137, 405, 100,
 19:46:24.438,e8:da:bf:c6:3e:4f, 2015-01-01 01:04:22.860, -0.189, -0.392, -0.888, 1.282, -2.075, 174.072, , , , , , , 179.923, -0.742, -153.397, -78.300, 13.100, -69.807, 20.58, 0.0069, 0.57245, -0.81985, -0.00137, 405, 100,
 19:46:24.454,e8:da:bf:c6:3e:4f, 2015-01-01 01:04:22.860, -0.194, -0.406, -1.06, -0.244, -0.671, 180.237, , , , , , , 179.951, -0.725, -155.165, -78.300, 13.100, -69.807, 20.58, 0.0069, 0.57245, -0.81985, -0.00137, 405, 100,
 19:46:24.454,e8:da:bf:c6:3e:4f, 2015-01-01 01:04:22.860, -0.038, -0.424, -1.116, -1.831, 0.671, 187.561, , , , , , , 179.951, -0.736, -157.017, -78.300, 13.100, -69.807, 20.58, 0.0069, 0.57245, -0.81985, -0.00137, 405, 100,
 19:46:24.454,e8:da:bf:c6:3e:4f, 2015-01-01 01:04:22.860, 0.067, -0.433, -1.019, -1.587, -0.183, 185.974, , , , , , , 179.956, -0.742, -158.89, -78.300, 13.100, -69.807, 20.58, 0.0069, 0.57245, -0.81985, -0.00137, 405, 100,
 19:46:24.454,e8:da:bf:c6:3e:4f, 2015-01-01 01:04:22.860, 0.048, -0.429, -0.913, -0.305, -0.671, 184.509, , , , , , , 179.962, -0.742, -160.741, -78.300, 13.100, -69.807, 20.58, 0.0069, 0.57245, -0.81985, -0.00137, 405, 100,
 19:46:24.482,e8:da:bf:c6:3e:4f, 2015-01-01 01:04:22.860, 0.884, -0.422, -0.843, 0.732, 6.653, 198.853, , , , , , , 179.984, -0.786, -162.642, -78.300, 13.100, -69.807, 20.58, 0.0069, 0.57245, -0.81985, -0.00137, 405, 100,
 19:46:24.482,e8:da:bf:c6:3e:4f, 2015-01-01 01:04:22.860, 3.178, -0.381, -0.953, 7.935, -6.409, 206.116, , , , , , , -179.956, -0.791, -164.745, -78.300, 13.100, -69.807, 20.58, 0.0069, 0.57245, -0.81985, -0.00137, 405, 100,
 19:46:24.482,e8:da:bf:c6:3e:4f, 2015-01-01 01:04:22.860, 4.5, -0.185, -1.15, -0.183, 5.92, 119.69, , , , , , , -179.896, -0.78, -166.333, -78.300, 13.100, -69.807, 20.58, 0.0069, 0.57245, -0.81985, -0.00137, 405, 100,
 19:46:24.483,e8:da:bf:c6:3e:4f, 2015-01-01 01:04:22.860, 5.493, -0.075, -1.128, -1.465, 0.793, 67.688, , , , , , , -179.907, -0.84, -167.289, -78.300, 13.100, -69.807, 20.58, 0.0069, 0.57245, -0.81985, -0.00137, 405, 100,
 19:46:24.541,e8:da:bf:c6:3e:4f, 2015-01-01 01:04:22.860, 4.641, -0.004, -0.881, 0.244, -7.446, -38.147, , , , , , , -179.907, -0.797, -167.377, -78.300, 13.100, -69.807, 20.58, 0.00439, 0.116, -0.99319, -0.00046, 405, 100,
 19:46:24.542,e8:da:bf:c6:3e:4f, 2015-01-01 01:04:22.860, 3.119, -0.051, -0.796, 1.587, -15.015, -93.323, , , , , , , -179.907, -0.687, -166.674, -78.300, 13.100, -69.807, 20.58, 0.00439, 0.116, -0.99319, -0.00046, 405, 100,
 19:46:24.542,e8:da:bf:c6:3e:4f, 2015-01-01 01:04:22.860, 0.847, -0.086, -0.865, 1.221, -4.211, -149.658, , , , , , , -179.896, -0.566, -165.416, -78.300, 13.100, -69.807, 20.58, 0.00439, 0.116, -0.99319, -0.00046, 405, 100,
 19:46:24.542,e8:da:bf:c6:3e:4f, 2015-01-01 01:04:22.860, -1.182, -0.118, -1.068, -2.563, -2.93, -156.555, , , , , , , -179.918, -0.555, -163.839, -78.300, 13.100, -69.807, 20.58, 0.00439, 0.116, -0.99319, -0.00046, 405, 100,
 19:46:24.559,e8:da:bf:c6:3e:4f, 2015-01-01 01:04:22.860, -3.051, -0.17, -1.283, -6.836, -11.414, -127.747, , , , , , , -179.973, -0.467, -162.422, -78.300, 13.100, -69.807, 20.58, 0.00439, 0.116, -0.99319, -0.00046, 405, 100,
 19:46:24.559,e8:da:bf:c6:3e:4f, 2015-01-01 01:04:22.860, -4.714, -0.209, -1.218, -2.441, -5.249, -81.909, , , , , , , 179.962, -0.374, -161.367, -78.300, 13.100, -69.807, 20.58, 0.00439, 0.116, -0.99319, -0.00046, 405, 100,
 19:46:24.560,e8:da:bf:c6:3e:4f, 2015-01-01 01:04:22.860, -4.452, -0.239, -0.743, -1.099, 3.784, 8.118, , , , , , , 179.951, -0.374, -161.027, -78.300, 13.100, -69.807, 20.58, 0.00439, 0.116, -0.99319, -0.00046, 405, 100,
 19:46:24.560,e8:da:bf:c6:3e:4f, 2015-01-01 01:04:22.860, -2.969, -0.2, -0.407, 4.944, 14.038, 78.979, , , , , , , 179.973, -0.472, -161.521, -78.300, 13.100, -69.807, 20.58, 0.00439, 0.116, -0.99319, -0.00046, 405, 100,
 19:46:24.739,e8:da:bf:c6:3e:4f, 2015-01-01 01:04:23.215, -1, -0.144, -0.698, 2.258, 14.465, 122.681, , , , , , , -179.978, -0.626, -162.57, -78.300, 13.100, -69.807, 20.58, 0.00439, 0.116, -0.99319, -0.00046, 405, 100,
 19:46:24.849,e8:da:bf:c6:3e:4f, 2015-01-01 01:04:23.215, 0.463, -0.098, -1.235, 1.526, 4.333, 132.324, , , , , , , -179.951, -0.725, -163.878, -78.300, 13.100, -69.807, 20.58, 0.00439, 0.116, -0.99319, -0.00046, 405, 100,
 19:46:24.849,e8:da:bf:c6:3e:4f, 2015-01-01 01:04:23.215, 2.523, -0.081, -1.464, -2.258, 1.099, 130.676, , , , , , , -179.951, -0.769, -165.201, -78.300, 13.100, -69.807, 20.58, 0.00439, 0.116, -0.99319, -0.00046, 405, 100,
 19:46:24.850,e8:da:bf:c6:3e:4f, 2015-01-01 01:04:23.215, 3.919, -0.078, -1.157, -0.488, 2.014, 79.834, , , , , , , -179.945, -0.775, -166.295, -78.300, 13.100, -69.807, 20.58, 0.00439, 0.116, -0.99319, -0.00046, 405, 100,
 19:46:24.866,e8:da:bf:c6:3e:4f, 2015-01-01 01:04:23.215, 4.464, -0.059, -0.743, 0.977, 1.892, 13.123, , , , , , , -179.94, -0.807, -166.696, -78.300, 13.100, -69.807, 20.58, 0.00439, 0.116, -0.99319, -0.00046, 405, 100,
 19:46:24.866,e8:da:bf:c6:3e:4f, 2015-01-01 01:04:23.215, 3.665, -0.012, -0.729, 4.578, -10.071, -55.725, , , , , , , -179.907, -0.758, -166.481, -78.300, 13.100, -69.807, 20.58, 0.00439, 0.116, -0.99319, -0.00046, 405, 100,
 19:46:24.866,e8:da:bf:c6:3e:4f, 2015-01-01 01:04:23.215, 1.727, -0.025, -1.088, -0.916, -9.827, -115.173, , , , , , , -179.896, -0.648, -165.547, -78.300, 13.100, -69.807, 20.58, 0.00439, 0.116, -0.99319, -0.00046, 405, 100,
 19:46:24.866,e8:da:bf:c6:3e:4f, 2015-01-01 01:04:23.215, 0.264, -0.072, -1.17, -4.211, -1.892, -133.24, , , , , , , -179.934, -0.593, -164.301, -78.300, 13.100, -69.807, 20.58, 0.00439, 0.116, -0.99319, -0.00046, 405, 100,
 19:46:24.866,e8:da:bf:c6:3e:4f, 2015-01-01 01:04:23.215, -1.17, -0.127, -0.95, -3.113, -6.897, -142.7, , , , , , , -179.989, -0.577, -162.905, -78.300, 13.100, -69.807, 20.58, 0.00439, 0.116, -0.99319, -0.00046, 405, 100,
 19:46:24.866,e8:da:bf:c6:3e:4f, 2015-01-01 01:04:23.215, -2.445, -0.177, -0.887, -2.136, -4.761, -117.371, , , , , , , 179.984, -0.505, -161.576, -78.300, 13.100, -69.807, 20.58, 0.00439, 0.116, -0.99319, -0.00046, 405, 100,
 19:46:24.866,e8:da:bf:c6:3e:4f, 2015-01-01 01:04:23.215, -3.489, -0.167, -1.052, -0.793, -5.859, -73.425, , , , , , , 179.962, -0.456, -160.659, -78.300, 13.100, -69.807, 20.58, 0.00439, 0.116, -0.99319, -0.00046, 405, 100,
 19:46:24.866,e8:da:bf:c6:3e:4f, 2015-01-01 01:04:23.215, -3.869, -0.16, -1.06, 0.427, 0.488, -22.766, , , , , , , 179.967, -0.423, -160.17, -78.300, 13.100, -69.807, 20.58, 0.00439, 0.116, -0.99319, -0.00046, 405, 100,
 19:46:24.867,e8:da:bf:c6:3e:4f, 2015-01-01 01:04:23.215, -3.171, -0.161, -0.821, 0, 6.897, 44.922, , , , , , , 179.962, -0.467, -160.34, -78.300, 13.100, -69.807, 20.58, 0.00439, 0.116, -0.99319, -0.00046, 405, 100,
 19:46:24.867,e8:da:bf:c6:3e:4f, 2015-01-01 01:04:23.215, -1.931, -0.144, -0.679, 2.625, 11.292, 85.266, , , , , , , 179.984, -0.566, -161.016, -78.300, 13.100, -69.807, 20.58, 0.00439, 0.116, -0.99319, -0.00046, 405, 100,
 19:46:24.867,e8:da:bf:c6:3e:4f, 2015-01-01 01:04:23.215, -0.386, -0.133, -0.804, 1.343, 10.376, 118.591, , , , , , , -179.995, -0.676, -162.092, -78.300, 13.100, -69.807, 20.58, 0.00439, 0.116, -0.99319, -0.00046, 405, 100,
 19:46:24.867,e8:da:bf:c6:3e:4f, 2015-01-01 01:04:23.215, 0.458, -0.114, -1.143, 1.892, 2.197, 119.202, , , , , , , -179.962, -0.731, -163.301, -78.300, 13.100, -69.807, 20.58, 0.00439, 0.116, -0.99319, -0.00046, 405, 100,
 19:46:24.867,e8:da:bf:c6:3e:4f, 2015-01-01 01:04:23.215, 2.027, -0.104, -1.296, -1.465, 0.366, 120.056, , , , , , , -179.951, -0.775, -164.498, -78.300, 13.100, -69.807, 20.58, 0.00439, 0.116, -0.99319, -0.00046, 405, 100,
 19:46:24.867,e8:da:bf:c6:3e:4f, 2015-01-01 01:04:23.215, 3.136, -0.068, -1.131, 0.671, -0.916, 79.529, , , , , , , -179.94, -0.753, -165.542, -78.300, 13.100, -69.807, 20.58, 0.00439, 0.116, -0.99319, -0.00046, 405, 100,
 19:46:24.867,e8:da:bf:c6:3e:4f, 2015-01-01 01:04:23.215, 3.519, -0.012, -0.869, 0, 1.831, 21.729, , , , , , , -179.934, -0.769, -165.981, -78.300, 13.100, -69.807, 20.58, 0.00439, 0.116, -0.99319, -0.00046, 405, 100,
 19:46:24.867,e8:da:bf:c6:3e:4f, 2015-01-01 01:04:23.215, 3.043, 0.04, -0.837, 2.441, -6.348, -27.466, , , , , , , -179.918, -0.742, -165.965, -78.300, 13.100, -69.807, 20.58, 0.00439, 0.116, -0.99319, -0.00046, 405, 100,
 19:46:24.867,e8:da:bf:c6:3e:4f, 2015-01-01 01:04:23.215, 1.934, 0.028, -0.998, -1.587, -5.371, -76.843, , , , , , , -179.918, -0.676, -165.377, -78.300, 13.100, -69.807, 20.58, 0.00439, 0.116, -0.99319, -0.00046, 405, 100,
 19:46:24.868,e8:da:bf:c6:3e:4f, 2015-01-01 01:04:23.215, 1.021, -0.04, -1.017, -1.526, -2.808, -91.858, , , , , , , -179.945, -0.626, -164.531, -78.300, 13.100, -69.807, 20.58, 0.00439, 0.116, -0.99319, -0.00046, 405, 100,
 19:46:24.868,e8:da:bf:c6:3e:4f, 2015-01-01 01:04:23.215, 0.151, -0.086, -0.839, 0.549, 1.221, -112.061, , , , , , , -179.956, -0.632, -163.493, -78.300, 13.100, -69.807, 20.58, 0.00439, 0.116, -0.99319, -0.00046, 405, 100,
 19:46:24.868,e8:da:bf:c6:3e:4f, 2015-01-01 01:04:23.215, -0.277, -0.107, -0.926, 1.465, 0.916, -112.671, , , , , , , -179.956, -0.637, -162.356, -78.300, 13.100, -69.807, 20.58, 0.00439, 0.116, -0.99319, -0.00046, 405, 100,
 19:46:24.868,e8:da:bf:c6:3e:4f, 2015-01-01 01:04:23.215, -0.274, -0.121, -1.144, -0.488, 1.038, -100.708, , , , , , , -179.956, -0.654, -161.29, -78.300, 13.100, -69.807, 20.58, 0.00439, 0.116, -0.99319, -0.00046, 405, 100,
 19:46:24.868,e8:da:bf:c6:3e:4f, 2015-01-01 01:04:23.215, -0.12, -0.134, -1.202, -2.686, -0.488, -92.712, , , , , , , -179.984, -0.654, -160.34, -78.300, 13.100, -69.807, 20.58, 0.00439, 0.116, -0.99319, -0.00046, 405, 100,
 19:46:24.868,e8:da:bf:c6:3e:4f, 2015-01-01 01:04:23.215, -0.158, -0.136, -0.996, -2.136, 1.16, -95.825, , , , , , , 179.984, -0.654, -159.395, -78.300, 13.100, -69.807, 20.58, 0.00439, 0.116, -0.99319, -0.00046, 405, 100,
 19:46:24.868,e8:da:bf:c6:3e:4f, 2015-01-01 01:04:23.215, -0.094, -0.12, -0.777, 1.16, 1.953, -89.111, , , , , , , 179.973, -0.67, -158.472, -78.300, 13.100, -69.807, 20.58, 0.00439, 0.116, -0.99319, -0.00046, 405, 100,
 19:46:24.868,e8:da:bf:c6:3e:4f, 2015-01-01 01:04:23.215, -0.012, -0.074, -0.815, 2.319, 0.854, -87.219, , , , , , , 179.989, -0.687, -157.599, -78.300, 13.100, -69.807, 20.58, 0.00439, 0.116, -0.99319, -0.00046, 405, 100,
 19:46:24.868,e8:da:bf:c6:3e:4f, 2015-01-01 01:04:23.215, -0.033, -0.056, -1.006, 0.793, 0.122, -90.149, , , , , , , -180, -0.692, -156.714, -78.300, 13.100, -69.807, 20.58, 0.00439, 0.116, -0.99319, -0.00046, 405, 100,
 19:46:24.868,e8:da:bf:c6:3e:4f, 2015-01-01 01:04:23.215, -0.047, -0.092, -1.106, -0.549, 0.549, -88.135, , , , , , , 179.989, -0.698, -155.819, -78.300, 13.100, -69.807, 20.58, 0.00439, 0.116, -0.99319, -0.00046, 405, 100,
 19:46:24.869,e8:da:bf:c6:3e:4f, 2015-01-01 01:04:23.215, 0.119, -0.139, -1.009, -0.183, 5.127, -80.017, , , , , , , 179.978, -0.725, -154.973, -78.300, 13.100, -69.807, 20.58, 0.00439, 0.116, -0.99319, -0.00046, 405, 100,
 19:46:24.920,e8:da:bf:c6:3e:4f, 2015-01-01 01:04:23.215, 1.393, -0.141, -0.963, 1.892, -1.221, -63.354, , , , , , , 179.978, -0.758, -154.281, -78.300, 13.100, -69.807, 20.58, 0.00528, 0.24658, -0.96906, -0.00119, 405, 100,
 19:46:24.921,e8:da:bf:c6:3e:4f, 2015-01-01 01:04:23.215, 1.351, -0.053, -1.064, 0.061, -2.075, -116.516, , , , , , , 179.995, -0.703, -153.413, -78.300, 13.100, -69.807, 20.58, 0.00528, 0.24658, -0.96906, -0.00119, 405, 100,
 19:46:24.921,e8:da:bf:c6:3e:4f, 2015-01-01 01:04:23.215, 1.2, -0.1, -1.109, -4.7, 3.296, -132.935, , , , , , , 179.945, -0.747, -152.084, -78.300, 13.100, -69.807, 20.58, 0.00528, 0.24658, -0.96906, -0.00119, 405, 100,
 19:46:24.921,e8:da:bf:c6:3e:4f, 2015-01-01 01:04:23.215, 1.19, -0.186, -0.868, 0.183, -5.554, -139.16, , , , , , , 179.912, -0.714, -150.776, -78.300, 13.100, -69.807, 20.58, 0.00528, 0.24658, -0.96906, -0.00119, 405, 100,
 19:46:24.983,e8:da:bf:c6:3e:4f, 2015-01-01 01:04:23.605, 0.51, -0.287, -0.693, 2.563, 2.991, -173.218, , , , , , , 179.918, -0.698, -149.172, -78.300, 13.100, -69.807, 20.58, 0.00528, 0.24658, -0.96906, -0.00119, 405, 100,
 19:46:24.984,e8:da:bf:c6:3e:4f, 2015-01-01 01:04:23.605, 0.083, -0.362, -0.812, 5.005, 1.404, -169.128, , , , , , , 179.94, -0.736, -147.448, -78.300, 13.100, -69.807, 20.58, 0.00528, 0.24658, -0.96906, -0.00119, 405, 100,
 19:46:24.985,e8:da:bf:c6:3e:4f, 2015-01-01 01:04:23.605, -0.083, -0.348, -1.206, 1.221, 0.244, -168.64, , , , , , , 179.962, -0.736, -145.772, -78.300, 13.100, -69.807, 20.58, 0.00528, 0.24658, -0.96906, -0.00119, 405, 100,
 19:46:24.985,e8:da:bf:c6:3e:4f, 2015-01-01 01:04:23.605, -0.119, -0.323, -1.383, -4.517, 0.977, -168.762, , , , , , , 179.923, -0.736, -144.08, -78.300, 13.100, -69.807, 20.58, 0.00528, 0.24658, -0.96906, -0.00119, 405, 100,
 19:46:25.123,e8:da:bf:c6:3e:4f, 2015-01-01 01:04:23.605, -0.121, -0.33, -1.036, -3.601, 1.587, -165.588, , , , , , , 179.857, -0.753, -142.41, -78.300, 13.100, -69.807, 20.58, 0.00528, 0.24658, -0.96906, -0.00119, 405, 100,
 19:46:25.123,e8:da:bf:c6:3e:4f, 2015-01-01 01:04:23.605, -0.084, -0.341, -0.631, 1.892, 1.16, -161.438, , , , , , , 179.835, -0.758, -140.779, -78.300, 13.100, -69.807, 20.58, 0.00528, 0.24658, -0.96906, -0.00119, 405, 100,
 19:46:25.123,e8:da:bf:c6:3e:4f, 2015-01-01 01:04:23.605, -0.034, -0.322, -0.664, 5.066, 0.732, -159.058, , , , , , , 179.863, -0.769, -139.18, -78.300, 13.100, -69.807, 20.58, 0.00528, 0.24658, -0.96906, -0.00119, 405, 100,
 19:46:25.123,e8:da:bf:c6:3e:4f, 2015-01-01 01:04:23.605, -0.028, -0.292, -1.058, 2.258, 1.038, -159.546, , , , , , , 179.885, -0.764, -137.587, -78.300, 13.100, -69.807, 20.58, 0.00528, 0.24658, -0.96906, -0.00119, 405, 100,
 19:46:25.140,e8:da:bf:c6:3e:4f, 2015-01-01 01:04:23.605, -0.006, -0.296, -1.296, -2.014, 3.296, -156.128, , , , , , , 179.868, -0.791, -136.011, -78.300, 13.100, -69.807, 20.58, 0.00528, 0.24658, -0.96906, -0.00119, 405, 100,
 19:46:25.140,e8:da:bf:c6:3e:4f, 2015-01-01 01:04:23.605, 0.378, -0.336, -1.12, -2.075, 1.648, -147.217, , , , , , , 179.824, -0.807, -134.495, -78.300, 13.100, -69.807, 20.58, 0.00528, 0.24658, -0.96906, -0.00119, 405, 100,
 19:46:25.140,e8:da:bf:c6:3e:4f, 2015-01-01 01:04:23.605, 0.727, -0.346, -0.849, 1.099, -1.404, -155.945, , , , , , , 179.808, -0.807, -133.011, -78.300, 13.100, -69.807, 20.58, 0.00528, 0.24658, -0.96906, -0.00119, 405, 100,
 19:46:25.140,e8:da:bf:c6:3e:4f, 2015-01-01 01:04:23.605, 0.523, -0.341, -0.86, 1.77, 1.892, -181.519, , , , , , , 179.808, -0.797, -131.287, -78.300, 13.100, -69.807, 20.58, 0.00528, 0.24658, -0.96906, -0.00119, 405, 100,
 19:46:25.140,e8:da:bf:c6:3e:4f, 2015-01-01 01:04:23.605, 0.447, -0.352, -1.016, 0.488, 1.465, -180.115, , , , , , , 179.797, -0.818, -129.474, -78.300, 13.100, -69.807, 20.58, 0.00528, 0.24658, -0.96906, -0.00119, 405, 100,
 19:46:25.140,e8:da:bf:c6:3e:4f, 2015-01-01 01:04:23.605, 0.249, -0.373, -1.041, -0.488, -0.671, -190.857, , , , , , , 179.775, -0.802, -127.623, -78.300, 13.100, -69.807, 20.58, 0.00528, 0.24658, -0.96906, -0.00119, 405, 100,
 19:46:25.141,e8:da:bf:c6:3e:4f, 2015-01-01 01:04:23.605, -0.01, -0.431, -0.923, 0.671, 0.183, -196.899, , , , , , , 179.753, -0.797, -125.673, -78.300, 13.100, -69.807, 20.58, 0.00528, 0.24658, -0.96906, -0.00119, 405, 100,
 19:46:25.141,e8:da:bf:c6:3e:4f, 2015-01-01 01:04:23.605, -0.13, -0.476, -0.896, 2.38, 0.977, -192.871, , , , , , , 179.753, -0.791, -123.723, -78.300, 13.100, -69.807, 20.58, 0.00528, 0.24658, -0.96906, -0.00119, 405, 100,
 19:46:25.141,e8:da:bf:c6:3e:4f, 2015-01-01 01:04:23.605, -0.104, -0.471, -1.048, 1.16, 0.916, -187.683, , , , , , , 179.753, -0.797, -121.827, -78.300, 13.100, -69.807, 20.58, 0.00528, 0.24658, -0.96906, -0.00119, 405, 100,
 19:46:25.141,e8:da:bf:c6:3e:4f, 2015-01-01 01:04:23.605, -0.056, -0.435, -1.165, -1.343, 0.732, -185.608, , , , , , , 179.731, -0.791, -119.965, -78.300, 13.100, -69.807, 20.58, 0.00528, 0.24658, -0.96906, -0.00119, 405, 100,
 19:46:25.142,e8:da:bf:c6:3e:4f, 2015-01-01 01:04:23.605, -0.063, -0.405, -1.021, -1.709, 1.038, -185.364, , , , , , , 179.692, -0.797, -118.114, -78.300, 13.100, -69.807, 20.58, 0.00528, 0.24658, -0.96906, -0.00119, 405, 100,
 19:46:25.142,e8:da:bf:c6:3e:4f, 2015-01-01 01:04:23.605, -0.06, -0.401, -0.805, 1.038, 1.404, -182.922, , , , , , , 179.67, -0.791, -116.274, -78.300, 13.100, -69.807, 20.58, 0.00528, 0.24658, -0.96906, -0.00119, 405, 100,
 19:46:25.142,e8:da:bf:c6:3e:4f, 2015-01-01 01:04:23.605, -0.045, -0.404, -0.792, 3.113, 1.221, -181.396, , , , , , , 179.676, -0.797, -114.456, -78.300, 13.100, -69.807, 20.58, 0.00528, 0.24658, -0.96906, -0.00119, 405, 100,
 19:46:25.142,e8:da:bf:c6:3e:4f, 2015-01-01 01:04:23.605, -0.048, -0.407, -1.002, 2.014, 0.916, -181.274, , , , , , , 179.687, -0.791, -112.643, -78.300, 13.100, -69.807, 20.58, 0.00528, 0.24658, -0.96906, -0.00119, 405, 100,
 19:46:25.142,e8:da:bf:c6:3e:4f, 2015-01-01 01:04:23.605, -0.05, -0.413, -1.173, -0.549, 0.671, -180.298, , , , , , , 179.67, -0.797, -110.836, -78.300, 13.100, -69.807, 20.58, 0.00528, 0.24658, -0.96906, -0.00119, 405, 100,
 19:46:25.143,e8:da:bf:c6:3e:4f, 2015-01-01 01:04:23.605, -0.031, -0.417, -1.104, -1.221, 1.038, -178.772, , , , , , , 179.643, -0.786, -109.045, -78.300, 13.100, -69.807, 20.58, 0.00528, 0.24658, -0.96906, -0.00119, 405, 100,
 19:46:25.201,e8:da:bf:c6:3e:4f, 2015-01-01 01:04:23.605, 0.011, -0.409, -0.934, 0.183, 1.404, -177.429, , , , , , , 179.615, -0.791, -107.265, -78.300, 13.100, -69.807, 20.58, 0.00528, 0.24658, -0.96906, -0.00119, 405, 100,
 19:46:25.201,e8:da:bf:c6:3e:4f, 2015-01-01 01:04:23.605, 0.047, -0.388, -0.884, 1.16, 1.099, -177.124, , , , , , , 179.61, -0.786, -105.496, -78.300, 13.100, -69.807, 20.58, 0.00528, 0.24658, -0.96906, -0.00119, 405, 100,
 19:46:25.201,e8:da:bf:c6:3e:4f, 2015-01-01 01:04:23.605, 0.036, -0.375, -0.963, 0.732, 0.793, -179.077, , , , , , , 179.599, -0.791, -103.716, -78.300, 13.100, -69.807, 20.58, 0.00528, 0.24658, -0.96906, -0.00119, 405, 100,
 19:46:25.202,e8:da:bf:c6:3e:4f, 2015-01-01 01:04:23.605, -0.026, -0.383, -0.996, 0.183, 0.366, -180.603, , , , , , , 179.583, -0.775, -101.915, -78.300, 13.100, -69.807, 20.58, 0.00528, 0.24658, -0.96906, -0.00119, 405, 100,
 19:46:25.229,e8:da:bf:c6:3e:4f, 2015-01-01 01:04:23.605, -0.09, -0.397, -0.954, 0.977, 0.305, -180.176, , , , , , , 179.572, -0.769, -100.113, -78.300, 13.100, -69.807, 20.58, 0.00528, 0.24658, -0.96906, -0.00119, 405, 100,
 19:46:25.229,e8:da:bf:c6:3e:4f, 2015-01-01 01:04:23.605, -0.96, -0.365, -0.955, 1.587, -7.507, -188.782, , , , , , , 179.572, -0.709, -98.284, -78.300, 13.100, -69.807, 20.58, 0.00528, 0.24658, -0.96906, -0.00119, 405, 100,
 19:46:25.229,e8:da:bf:c6:3e:4f, 2015-01-01 01:04:23.605, -2.668, -0.351, -1.167, 1.221, -4.211, -184.204, , , , , , , 179.566, -0.643, -96.361, -78.300, 13.100, -69.807, 20.58, 0.00528, 0.24658, -0.96906, -0.00119, 405, 100,
 19:46:25.229,e8:da:bf:c6:3e:4f, 2015-01-01 01:04:23.605, -3.61, -0.33, -1.223, -4.578, -6.592, -120.85, , , , , , , 179.533, -0.566, -94.878, -78.300, 13.100, -69.807, 20.58, 0.00528, 0.24658, -0.96906, -0.00119, 405, 100,
 19:46:25.257,e8:da:bf:c6:3e:4f, 2015-01-01 01:04:23.605, -4.096, -0.286, -0.892, 0.671, -0.061, -76.904, , , , , , , 179.5, -0.516, -93.895, -78.300, 13.100, -69.807, 20.58, 0.00528, 0.24658, -0.96906, -0.00119, 405, 100,
 19:46:25.257,e8:da:bf:c6:3e:4f, 2015-01-01 01:04:23.605, -3.085, -0.237, -0.586, 1.892, 7.629, -1.587, , , , , , , 179.517, -0.56, -93.549, -78.300, 13.100, -69.807, 20.58, 0.00696, 0.68338, -0.72995, -0.0015, 405, 100,
 19:46:25.257,e8:da:bf:c6:3e:4f, 2015-01-01 01:04:23.605, -1.793, -0.142, -0.792, 1.892, 10.925, 38.757, , , , , , , 179.533, -0.654, -93.768, -78.300, 13.100, -69.807, 20.58, 0.00696, 0.68338, -0.72995, -0.0015, 405, 100,
 19:46:25.257,e8:da:bf:c6:3e:4f, 2015-01-01 01:04:23.605, -0.399, -0.073, -1.053, -1.282, 6.287, 68.604, , , , , , , 179.539, -0.753, -94.334, -78.300, 13.100, -69.807, 20.58, 0.00696, 0.68338, -0.72995, -0.0015, 405, 100,
 19:46:25.441,e8:da:bf:c6:3e:4f, 2015-01-01 01:04:23.960, 0.444, -0.011, -1.099, 0.61, 4.211, 70.496, , , , , , , 179.544, -0.802, -95.054, -78.300, 13.100, -69.807, 20.58, 0.00696, 0.68338, -0.72995, -0.0015, 405, 100,
 19:46:25.680,e8:da:bf:c6:3e:4f, 2015-01-01 01:04:23.960, 1.564, 0.016, -1.25, -1.587, 1.587, 67.078, , , , , , , 179.55, -0.857, -95.74, -78.300, 13.100, -69.807, 20.58, 0.00696, 0.68338, -0.72995, -0.0015, 405, 100,
 19:46:25.694,e8:da:bf:c6:3e:4f, 2015-01-01 01:04:24.320, 2.092, 0.062, -1.249, -3.723, -3.784, 32.654, , , , , , , 179.528, -0.829, -96.268, -78.300, 13.100, -69.807, 20.58, 0.00723, 0.62302, -0.7821, -0.00098, 405, 100,
 19:46:25.694,e8:da:bf:c6:3e:4f, 2015-01-01 01:04:24.320, 1.803, 0.067, -0.868, -3.723, -2.258, -8.423, , , , , , , 179.484, -0.802, -96.339, -78.300, 13.100, -69.807, 20.58, 0.00723, 0.62302, -0.7821, -0.00098, 405, 100,
 19:46:25.722,e8:da:bf:c6:3e:4f, 2015-01-01 01:04:24.320, 1.098, 0.04, -0.503, 3.662, -6.348, -31.86, , , , , , , 179.484, -0.753, -96.136, -78.300, 13.100, -69.807, 20.58, 0.00723, 0.62302, -0.7821, -0.00098, 405, 100,
 19:46:25.722,e8:da:bf:c6:3e:4f, 2015-01-01 01:04:24.320, 0.095, 0.018, -0.593, 6.653, 0.488, -55.115, , , , , , , 179.539, -0.731, -95.674, -78.300, 13.100, -69.807, 20.58, 0.00723, 0.62302, -0.7821, -0.00098, 405, 100,
 19:46:25.722,e8:da:bf:c6:3e:4f, 2015-01-01 01:04:24.320, -0.632, 0.02, -1.157, 2.808, 0.549, -52.063, , , , , , , 179.594, -0.731, -95.12, -78.300, 13.100, -69.807, 20.58, 0.00723, 0.62302, -0.7821, -0.00098, 405, 100,
 19:46:25.723,e8:da:bf:c6:3e:4f, 2015-01-01 01:04:24.320, -1.216, 0.022, -1.554, -4.944, -4.456, -34.912, , , , , , , 179.572, -0.703, -94.697, -78.300, 13.100, -69.807, 20.58, 0.00723, 0.62302, -0.7821, -0.00098, 405, 100,
 19:46:25.723,e8:da:bf:c6:3e:4f, 2015-01-01 01:04:24.320, -1.815, -0.033, -1.408, -8.057, -3.601, -19.226, , , , , , , 179.495, -0.654, -94.427, -78.300, 13.100, -69.807, 20.58, 0.00723, 0.62302, -0.7821, -0.00098, 405, 100,
 19:46:25.723,e8:da:bf:c6:3e:4f, 2015-01-01 01:04:24.320, -1.782, -0.12, -0.746, -2.686, 0.549, 15.686, , , , , , , 179.44, -0.643, -94.417, -78.300, 13.100, -69.807, 20.58, 0.00723, 0.62302, -0.7821, -0.00098, 405, 100,
 19:46:25.723,e8:da:bf:c6:3e:4f, 2015-01-01 01:04:24.320, -1.241, -0.137, -0.399, 5.493, 6.409, 44.067, , , , , , , 179.462, -0.681, -94.746, -78.300, 13.100, -69.807, 20.58, 0.00723, 0.62302, -0.7821, -0.00098, 405, 100,
 19:46:25.723,e8:da:bf:c6:3e:4f, 2015-01-01 01:04:24.320, -0.444, -0.068, -0.721, 5.31, 4.028, 61.829, , , , , , , 179.528, -0.747, -95.295, -78.300, 13.100, -69.807, 20.58, 0.00723, 0.62302, -0.7821, -0.00098, 405, 100,
 19:46:25.723,e8:da:bf:c6:3e:4f, 2015-01-01 01:04:24.320, 0.103, 0.032, -1.19, 1.282, 0.854, 66.04, , , , , , , 179.572, -0.78, -95.949, -78.300, 13.100, -69.807, 20.58, 0.00723, 0.62302, -0.7821, -0.00098, 405, 100,
 19:46:25.723,e8:da:bf:c6:3e:4f, 2015-01-01 01:04:24.320, 0.341, 0.037, -1.345, -3.601, 2.625, 64.27, , , , , , , 179.561, -0.797, -96.603, -78.300, 13.100, -69.807, 20.58, 0.00723, 0.62302, -0.7821, -0.00098, 405, 100,
 19:46:25.723,e8:da:bf:c6:3e:4f, 2015-01-01 01:04:24.320, 1.058, -0.02, -1.141, -3.662, 0.671, 66.223, , , , , , , 179.528, -0.829, -97.256, -78.300, 13.100, -69.807, 20.58, 0.00723, 0.62302, -0.7821, -0.00098, 405, 100,
 19:46:25.723,e8:da:bf:c6:3e:4f, 2015-01-01 01:04:24.320, 1.622, -0.045, -0.878, -0.549, -1.953, 43.701, , , , , , , 179.517, -0.813, -97.828, -78.300, 13.100, -69.807, 20.58, 0.00723, 0.62302, -0.7821, -0.00098, 405, 100,
 19:46:25.724,e8:da:bf:c6:3e:4f, 2015-01-01 01:04:24.320, 1.798, -0.013, -0.787, 0.916, 0.549, 12.329, , , , , , , 179.522, -0.818, -98.08, -78.300, 13.100, -69.807, 20.58, 0.00723, 0.62302, -0.7821, -0.00098, 405, 100,
 19:46:25.724,e8:da:bf:c6:3e:4f, 2015-01-01 01:04:24.320, 1.588, 0.056, -0.901, 1.404, -3.357, -12.756, , , , , , , 179.533, -0.802, -98.075, -78.300, 13.100, -69.807, 20.58, 0.00723, 0.62302, -0.7821, -0.00098, 405, 100,
 19:46:25.724,e8:da:bf:c6:3e:4f, 2015-01-01 01:04:24.320, 1.055, 0.094, -1, -0.244, -3.235, -37.964, , , , , , , 179.539, -0.764, -97.8, -78.300, 13.100, -69.807, 20.58, 0.00723, 0.62302, -0.7821, -0.00098, 405, 100,
 19:46:25.724,e8:da:bf:c6:3e:4f, 2015-01-01 01:04:24.320, 0.455, 0.055, -0.932, 0.549, -0.488, -51.636, , , , , , , 179.533, -0.736, -97.344, -78.300, 13.100, -69.807, 20.58, 0.00723, 0.62302, -0.7821, -0.00098, 405, 100,
 19:46:25.724,e8:da:bf:c6:3e:4f, 2015-01-01 01:04:24.320, -0.042, -0.026, -0.818, 3.296, 0.549, -61.34, , , , , , , 179.55, -0.736, -96.768, -78.300, 13.100, -69.807, 20.58, 0.00723, 0.62302, -0.7821, -0.00098, 405, 100,
 19:46:25.724,e8:da:bf:c6:3e:4f, 2015-01-01 01:04:24.320, -0.44, -0.061, -0.987, 2.93, 0.061, -58.655, , , , , , , 179.577, -0.736, -96.163, -78.300, 13.100, -69.807, 20.58, 0.00723, 0.62302, -0.7821, -0.00098, 405, 100,
 19:46:25.725,e8:da:bf:c6:3e:4f, 2015-01-01 01:04:24.320, -1.006, -0.012, -1.278, -1.831, -4.883, -49.377, , , , , , , 179.577, -0.698, -95.63, -78.300, 13.100, -69.807, 20.58, 0.00723, 0.62302, -0.7821, -0.00098, 405, 100,
 19:46:25.725,e8:da:bf:c6:3e:4f, 2015-01-01 01:04:24.320, -1.686, 0.019, -1.333, -5.737, -3.052, -34.424, , , , , , , 179.528, -0.665, -95.202, -78.300, 13.100, -69.807, 20.58, 0.00723, 0.62302, -0.7821, -0.00098, 405, 100,
 19:46:25.725,e8:da:bf:c6:3e:4f, 2015-01-01 01:04:24.320, -1.957, -0.025, -0.964, -5.005, -1.892, -2.991, , , , , , , 179.467, -0.632, -95.032, -78.300, 13.100, -69.807, 20.58, 0.00723, 0.62302, -0.7821, -0.00098, 405, 100,
 19:46:25.726,e8:da:bf:c6:3e:4f, 2015-01-01 01:04:24.320, -1.829, -0.097, -0.526, 2.441, 1.648, 26.672, , , , , , , 179.462, -0.637, -95.169, -78.300, 13.100, -69.807, 20.58, 0.00723, 0.62302, -0.7821, -0.00098, 405, 100,
 19:46:25.726,e8:da:bf:c6:3e:4f, 2015-01-01 01:04:24.320, -1.51, -0.122, -0.64, 5.615, 3.052, 50.842, , , , , , , 179.511, -0.665, -95.576, -78.300, 13.100, -69.807, 20.58, 0.00723, 0.62302, -0.7821, -0.00098, 405, 100,
 19:46:25.726,e8:da:bf:c6:3e:4f, 2015-01-01 01:04:24.320, -1.099, -0.092, -1.086, 1.831, 2.319, 71.472, , , , , , , 179.555, -0.703, -96.202, -78.300, 13.100, -69.807, 20.58, 0.00723, 0.62302, -0.7821, -0.00098, 405, 100,
 19:46:25.726,e8:da:bf:c6:3e:4f, 2015-01-01 01:04:24.320, -0.689, -0.075, -1.222, -1.282, 2.38, 86.243, , , , , , , 179.561, -0.731, -97.004, -78.300, 13.100, -69.807, 20.58, 0.00723, 0.62302, -0.7821, -0.00098, 405, 100,
 19:46:25.726,e8:da:bf:c6:3e:4f, 2015-01-01 01:04:24.320, -0.22, -0.087, -1.038, -0.549, 1.465, 97.9, , , , , , , 179.561, -0.764, -97.938, -78.300, 13.100, -69.807, 20.58, 0.00723, 0.62302, -0.7821, -0.00098, 405, 100,
 19:46:25.726,e8:da:bf:c6:3e:4f, 2015-01-01 01:04:24.320, -0.089, -0.097, -0.954, 0.183, 0.244, 96.741, , , , , , , 179.572, -0.775, -98.921, -78.300, 13.100, -69.807, 20.58, 0.00723, 0.62302, -0.7821, -0.00098, 405, 100,
 19:46:25.726,e8:da:bf:c6:3e:4f, 2015-01-01 01:04:24.320, -0.096, -0.097, -1.022, -0.671, -1.282, 97.351, , , , , , , 179.577, -0.78, -99.888, -78.300, 13.100, -69.807, 20.58, 0.00723, 0.62302, -0.7821, -0.00098, 405, 100,
 19:46:25.726,e8:da:bf:c6:3e:4f, 2015-01-01 01:04:24.320, -0.19, -0.097, -1.015, -1.648, -1.16, 98.267, , , , , , , 179.577, -0.769, -100.871, -78.300, 13.100, -69.807, 20.58, 0.00723, 0.62302, -0.7821, -0.00098, 405, 100,
 19:46:25.726,e8:da:bf:c6:3e:4f, 2015-01-01 01:04:24.320, -0.287, -0.118, -0.886, 0, -1.282, 101.318, , , , , , , 179.577, -0.769, -101.871, -78.300, 13.100, -69.807, 20.58, 0.00723, 0.62302, -0.7821, -0.00098, 405, 100,
 19:46:25.726,e8:da:bf:c6:3e:4f, 2015-01-01 01:04:24.320, -0.354, -0.147, -0.879, 1.709, 0, 106.018, , , , , , , 179.599, -0.769, -102.914, -78.300, 13.100, -69.807, 20.58, 0.00723, 0.62302, -0.7821, -0.00098, 405, 100,
 19:46:25.726,e8:da:bf:c6:3e:4f, 2015-01-01 01:04:24.320, -0.404, -0.163, -1.069, -0.244, -1.099, 111.206, , , , , , , 179.621, -0.775, -104.002, -78.300, 13.100, -69.807, 20.58, 0.00723, 0.62302, -0.7821, -0.00098, 405, 100,
 19:46:25.726,e8:da:bf:c6:3e:4f, 2015-01-01 01:04:24.320, -0.389, -0.174, -1.143, -2.258, -1.038, 116.699, , , , , , , 179.615, -0.769, -105.145, -78.300, 13.100, -69.807, 20.58, 0.00723, 0.62302, -0.7821, -0.00098, 405, 100,
 19:46:25.726,e8:da:bf:c6:3e:4f, 2015-01-01 01:04:24.320, -0.384, -0.179, -0.984, -1.709, -1.16, 123.413, , , , , , , 179.604, -0.769, -106.359, -78.300, 13.100, -69.807, 20.58, 0.00723, 0.62302, -0.7821, -0.00098, 405, 100,
 19:46:25.726,e8:da:bf:c6:3e:4f, 2015-01-01 01:04:24.320, -0.42, -0.187, -0.83, 0.366, -1.343, 127.747, , , , , , , 179.615, -0.764, -107.611, -78.300, 13.100, -69.807, 20.58, 0.00723, 0.62302, -0.7821, -0.00098, 405, 100,
 19:46:25.727,e8:da:bf:c6:3e:4f, 2015-01-01 01:04:24.320, -0.454, -0.203, -0.868, 1.282, -0.793, 135.132, , , , , , , 179.637, -0.764, -108.935, -78.300, 13.100, -69.807, 20.58, 0.00723, 0.62302, -0.7821, -0.00098, 405, 100,
 19:46:25.727,e8:da:bf:c6:3e:4f, 2015-01-01 01:04:24.320, -0.438, -0.232, -1.028, 0.061, -0.244, 141.235, , , , , , , 179.659, -0.764, -110.319, -78.300, 13.100, -69.807, 20.58, 0.00723, 0.62302, -0.7821, -0.00098, 405, 100,
 19:46:25.727,e8:da:bf:c6:3e:4f, 2015-01-01 01:04:24.320, -0.309, -0.27, -1.103, -1.587, 0.671, 149.414, , , , , , , 179.665, -0.78, -111.78, -78.300, 13.100, -69.807, 20.58, 0.00723, 0.62302, -0.7821, -0.00098, 405, 100,
 19:46:25.727,e8:da:bf:c6:3e:4f, 2015-01-01 01:04:24.320, -0.14, -0.304, -1.013, -1.099, 1.526, 153.748, , , , , , , 179.665, -0.797, -113.302, -78.300, 13.100, -69.807, 20.58, 0.00723, 0.62302, -0.7821, -0.00098, 405, 100,
 19:46:25.727,e8:da:bf:c6:3e:4f, 2015-01-01 01:04:24.320, 0.037, -0.309, -0.963, -0.549, 0, 158.081, , , , , , , 179.676, -0.824, -114.868, -78.300, 13.100, -69.807, 20.58, 0.00723, 0.62302, -0.7821, -0.00098, 405, 100,
 19:46:25.743,e8:da:bf:c6:3e:4f, 2015-01-01 01:04:24.320, 0.132, -0.29, -0.98, -1.038, -0.732, 157.227, , , , , , , 179.687, -0.824, -116.45, -78.300, 13.100, -69.807, 20.58, 0.00723, 0.62302, -0.7821, -0.00098, 405, 100,
 19:46:25.743,e8:da:bf:c6:3e:4f, 2015-01-01 01:04:24.320, 0.146, -0.269, -0.974, -0.916, -0.854, 153.503, , , , , , , 179.692, -0.829, -118.004, -78.300, 13.100, -69.807, 20.58, 0.00723, 0.62302, -0.7821, -0.00098, 405, 100,
 19:46:25.743,e8:da:bf:c6:3e:4f, 2015-01-01 01:04:24.320, 0.051, -0.257, -0.944, -0.671, -1.282, 148.071, , , , , , , 179.703, -0.824, -119.509, -78.300, 13.100, -69.807, 20.58, 0.00723, 0.62302, -0.7821, -0.00098, 405, 100,
 19:46:25.743,e8:da:bf:c6:3e:4f, 2015-01-01 01:04:24.320, -0.019, -0.271, -0.91, 0.427, -2.441, 148.01, , , , , , , 179.72, -0.818, -120.992, -78.300, 13.100, -69.807, 20.58, 0.00723, 0.62302, -0.7821, -0.00098, 405, 100,
 19:46:25.819,e8:da:bf:c6:3e:4f, 2015-01-01 01:04:24.320, -0.077, -0.283, -0.966, 0.671, -1.404, 147.156, , , , , , , 179.742, -0.802, -122.47, -78.300, 13.100, -69.807, 20.58, 0.00723, 0.62302, -0.7821, -0.00098, 405, 100,
 19:46:25.821,e8:da:bf:c6:3e:4f, 2015-01-01 01:04:24.320, -0.236, -0.286, -1.075, -0.793, -2.319, 146.301, , , , , , , 179.758, -0.797, -123.937, -78.300, 13.100, -69.807, 20.58, 0.00723, 0.62302, -0.7821, -0.00098, 405, 100,
 19:46:25.821,e8:da:bf:c6:3e:4f, 2015-01-01 01:04:24.320, -0.432, -0.295, -1.082, -1.892, -2.808, 150.452, , , , , , , 179.758, -0.775, -125.414, -78.300, 13.100, -69.807, 20.58, 0.00723, 0.62302, -0.7821, -0.00098, 405, 100,
 19:46:25.821,e8:da:bf:c6:3e:4f, 2015-01-01 01:04:24.320, -0.499, -0.32, -0.972, -1.099, -2.38, 162.354, , , , , , , 179.758, -0.758, -126.996, -78.300, 13.100, -69.807, 20.58, 0.00723, 0.62302, -0.7821, -0.00098, 405, 100,
 19:46:25.962,e8:da:bf:c6:3e:4f, 2015-01-01 01:04:24.320, -0.576, -0.345, -0.889, -0.061, -0.732, 167.175, , , , , , , 179.769, -0.747, -128.644, -78.300, 13.100, -69.807, 20.58, 0.00723, 0.62302, -0.7821, -0.00098, 405, 100,
 19:46:26.099,e8:da:bf:c6:3e:4f, 2015-01-01 01:04:24.320, -0.359, -0.384, -0.901, 0.732, 1.16, 180.298, , , , , , , 179.791, -0.764, -130.386, -78.300, 13.100, -69.807, 20.58, 0.00723, 0.62302, -0.7821, -0.00098, 405, 100,
 19:46:26.099,e8:da:bf:c6:3e:4f, 2015-01-01 01:04:24.705, -0.09, -0.41, -1.003, 0, 2.014, 185.73, , , , , , , 179.813, -0.786, -132.231, -78.300, 13.100, -69.807, 20.58, 0.00488, 0.17087, -0.98523, -0.00098, 405, 100,
 19:46:26.099,e8:da:bf:c6:3e:4f, 2015-01-01 01:04:24.705, 0.063, -0.42, -1.079, -1.465, 0.305, 185.486, , , , , , , 179.824, -0.813, -134.094, -78.300, 13.100, -69.807, 20.58, 0.00488, 0.17087, -0.98523, -0.00098, 405, 100,
 19:46:26.122,e8:da:bf:c6:3e:4f, 2015-01-01 01:04:24.705, 0.104, -0.427, -1.05, -1.77, -0.977, 184.204, , , , , , , 179.83, -0.807, -135.945, -78.300, 13.100, -69.807, 20.58, 0.00488, 0.17087, -0.98523, -0.00098, 405, 100,
 19:46:26.123,e8:da:bf:c6:3e:4f, 2015-01-01 01:04:24.705, 0.077, -0.427, -0.967, -1.16, -1.038, 182.434, , , , , , , 179.835, -0.807, -137.78, -78.300, 13.100, -69.807, 20.58, 0.00488, 0.17087, -0.98523, -0.00098, 405, 100,
 19:46:26.123,e8:da:bf:c6:3e:4f, 2015-01-01 01:04:24.705, 0.068, -0.416, -0.915, -0.366, -0.916, 182.007, , , , , , , 179.846, -0.802, -139.603, -78.300, 13.100, -69.807, 20.58, 0.00488, 0.17087, -0.98523, -0.00098, 405, 100,
 19:46:26.123,e8:da:bf:c6:3e:4f, 2015-01-01 01:04:24.705, 0.086, -0.395, -0.936, -0.061, -1.16, 181.702, , , , , , , 179.863, -0.802, -141.422, -78.300, 13.100, -69.807, 20.58, 0.00488, 0.17087, -0.98523, -0.00098, 405, 100,
 19:46:26.123,e8:da:bf:c6:3e:4f, 2015-01-01 01:04:24.705, 0.085, -0.38, -0.985, -0.488, -1.343, 179.688, , , , , , , 179.879, -0.791, -143.234, -78.300, 13.100, -69.807, 20.58, 0.00488, 0.17087, -0.98523, -0.00098, 405, 100,
 19:46:26.123,e8:da:bf:c6:3e:4f, 2015-01-01 01:04:24.705, 0.062, -0.393, -0.998, -0.61, -1.221, 178.101, , , , , , , 179.896, -0.786, -145.025, -78.300, 13.100, -69.807, 20.58, 0.00488, 0.17087, -0.98523, -0.00098, 405, 100,
 19:46:26.123,e8:da:bf:c6:3e:4f, 2015-01-01 01:04:24.705, 0.055, -0.415, -0.988, -0.305, -0.977, 178.04, , , , , , , 179.907, -0.775, -146.805, -78.300, 13.100, -69.807, 20.58, 0.00488, 0.17087, -0.98523, -0.00098, 405, 100,
 19:46:26.123,e8:da:bf:c6:3e:4f, 2015-01-01 01:04:24.705, 0.049, -0.416, -1.007, -0.549, -0.977, 177.856, , , , , , , 179.923, -0.775, -148.59, -78.300, 13.100, -69.807, 20.58, 0.00488, 0.17087, -0.98523, -0.00098, 405, 100,
 19:46:26.124,e8:da:bf:c6:3e:4f, 2015-01-01 01:04:24.705, 0.016, -0.396, -1.017, -1.099, -1.587, 176.819, , , , , , , 179.934, -0.764, -150.364, -78.300, 13.100, -69.807, 20.58, 0.00488, 0.17087, -0.98523, -0.00098, 405, 100,
 19:46:26.124,e8:da:bf:c6:3e:4f, 2015-01-01 01:04:24.705, -0.022, -0.38, -0.983, -0.916, -2.686, 176.025, , , , , , , 179.94, -0.747, -152.128, -78.300, 13.100, -69.807, 20.58, 0.00488, 0.17087, -0.98523, -0.00098, 405, 100,
 19:46:26.124,e8:da:bf:c6:3e:4f, 2015-01-01 01:04:24.705, -0.151, -0.382, -0.941, -0.61, -2.136, 174.316, , , , , , , 179.951, -0.72, -153.885, -78.300, 13.100, -69.807, 20.58, 0.00488, 0.17087, -0.98523, -0.00098, 405, 100,
 19:46:26.124,e8:da:bf:c6:3e:4f, 2015-01-01 01:04:24.705, -0.212, -0.41, -0.924, 0.122, -0.549, 178.406, , , , , , , 179.962, -0.714, -155.638, -78.300, 13.100, -69.807, 20.58, 0.00488, 0.17087, -0.98523, -0.00098, 405, 100,
 19:46:26.124,e8:da:bf:c6:3e:4f, 2015-01-01 01:04:24.705, -0.028, -0.439, -0.985, 0.061, 0.427, 188.904, , , , , , , 179.984, -0.714, -157.489, -78.300, 13.100, -69.807, 20.58, 0.00488, 0.17087, -0.98523, -0.00098, 405, 100,
 19:46:26.124,e8:da:bf:c6:3e:4f, 2015-01-01 01:04:24.705, 0.104, -0.434, -1.062, -1.099, -0.549, 187.805, , , , , , , 179.995, -0.725, -159.384, -78.300, 13.100, -69.807, 20.58, 0.00488, 0.17087, -0.98523, -0.00098, 405, 100,
 19:46:26.125,e8:da:bf:c6:3e:4f, 2015-01-01 01:04:24.705, 0.119, -0.412, -1.029, -1.526, 1.587, 186.279, , , , , , , -180, -0.72, -161.252, -78.300, 13.100, -69.807, 20.58, 0.00488, 0.17087, -0.98523, -0.00098, 405, 100,
 19:46:26.125,e8:da:bf:c6:3e:4f, 2015-01-01 01:04:24.705, 1.614, -0.406, -0.882, 0.488, 3.601, 204.834, , , , , , , -179.989, -0.775, -163.196, -78.300, 13.100, -69.807, 20.58, 0.00488, 0.17087, -0.98523, -0.00098, 405, 100,
 19:46:26.125,e8:da:bf:c6:3e:4f, 2015-01-01 01:04:24.705, 3.47, -0.32, -0.929, 7.141, -3.113, 180.176, , , , , , , -179.918, -0.747, -165.212, -78.300, 13.100, -69.807, 20.58, 0.00488, 0.17087, -0.98523, -0.00098, 405, 100,
 19:46:26.125,e8:da:bf:c6:3e:4f, 2015-01-01 01:04:24.705, 4.622, -0.159, -1.099, -1.038, 6.104, 106.323, , , , , , , -179.879, -0.78, -166.564, -78.300, 13.100, -69.807, 20.58, 0.00488, 0.17087, -0.98523, -0.00098, 405, 100,
 19:46:26.125,e8:da:bf:c6:3e:4f, 2015-01-01 01:04:24.705, 5.001, -0.051, -1.094, -0.854, -3.113, 48.279, , , , , , , -179.885, -0.797, -167.36, -78.300, 13.100, -69.807, 20.58, 0.00488, 0.17087, -0.98523, -0.00098, 405, 100,
 19:46:26.125,e8:da:bf:c6:3e:4f, 2015-01-01 01:04:24.705, 3.911, -0.006, -0.895, -0.671, -7.935, -41.626, , , , , , , -179.89, -0.731, -167.311, -78.300, 13.100, -69.807, 20.58, 0.00488, 0.17087, -0.98523, -0.00098, 405, 100,
 19:46:26.125,e8:da:bf:c6:3e:4f, 2015-01-01 01:04:24.705, 2.12, -0.046, -0.795, 2.014, -14.771, -87.402, , , , , , , -179.89, -0.621, -166.646, -78.300, 13.100, -69.807, 20.58, 0.00488, 0.17087, -0.98523, -0.00098, 405, 100,
 19:46:26.126,e8:da:bf:c6:3e:4f, 2015-01-01 01:04:24.705, 0.242, -0.051, -0.898, 0.305, 1.221, -131.226, , , , , , , -179.879, -0.549, -165.504, -78.300, 13.100, -69.807, 20.58, 0.00488, 0.17087, -0.98523, -0.00098, 405, 100,
 19:46:26.126,e8:da:bf:c6:3e:4f, 2015-01-01 01:04:24.705, -1.167, -0.069, -1.166, -2.991, -4.333, -127.014, , , , , , , -179.901, -0.56, -164.191, -78.300, 13.100, -69.807, 20.58, 0.00488, 0.17087, -0.98523, -0.00098, 405, 100,
 19:46:26.126,e8:da:bf:c6:3e:4f, 2015-01-01 01:04:24.705, -2.432, -0.104, -1.31, -6.714, -9.094, -101.685, , , , , , , -179.956, -0.472, -163.059, -78.300, 13.100, -69.807, 20.58, 0.00488, 0.17087, -0.98523, -0.00098, 405, 100,
 19:46:26.142,e8:da:bf:c6:3e:4f, 2015-01-01 01:04:24.705, -3.48, -0.149, -1.13, -4.639, -2.38, -65.735, , , , , , , 179.973, -0.417, -162.213, -78.300, 13.100, -69.807, 20.58, 0.00488, 0.17087, -0.98523, -0.00098, 405, 100,
 19:46:26.142,e8:da:bf:c6:3e:4f, 2015-01-01 01:04:24.705, -3.263, -0.188, -0.66, -0.061, 3.54, 1.404, , , , , , , 179.951, -0.428, -161.927, -78.300, 13.100, -69.807, 20.58, 0.00488, 0.17087, -0.98523, -0.00098, 405, 100,
 19:46:26.142,e8:da:bf:c6:3e:4f, 2015-01-01 01:04:24.705, -2.297, -0.143, -0.473, 5.737, 10.01, 46.021, , , , , , , 179.984, -0.5, -162.208, -78.300, 13.100, -69.807, 20.58, 0.00488, 0.17087, -0.98523, -0.00098, 405, 100,
 19:46:26.142,e8:da:bf:c6:3e:4f, 2015-01-01 01:04:24.705, -0.839, -0.074, -0.775, 3.418, 11.658, 83.374, , , , , , , -179.962, -0.621, -162.883, -78.300, 13.100, -69.807, 20.58, 0.00488, 0.17087, -0.98523, -0.00098, 405, 100,
