Time,Device name,Chip Time(),Acceleration X(g),Acceleration Y(g),Acceleration Z(g),Angular velocity X(°/s),Angular velocity Y(°/s),Angular velocity Z(°/s),ShiftX(mm),ShiftY(mm),ShiftZ(mm),SpeedX(mm/s),SpeedY(mm/s),SpeedZ(mm/s),Angle X(°),Angle Y(°),Angle Z(°),Magnetic field X(ʯt),Magnetic field Y(ʯt),Magnetic field Z(ʯt),Temperature(℃),Quaternions 0(),Quaternions 1(),Quaternions 2(),Quaternions 3(),Raw power(),Power Percent(%)()
 19:06:13.711,e8:da:bf:c6:3e:4f, 2015-01-01 00:24:29.265, -0.256, 0.013, -1.068, -0.61, -0.732, -10.803, , , , , , , 179.681, -0.835, -101.898, -78.300, 13.100, -69.807, 20.66, 0.0079, 0.62161, -0.7832, 0.00012, 407, 100,
 19:06:13.713,e8:da:bf:c6:3e:4f, 2015-01-01 00:24:29.265, -0.323, 0.004, -1.033, -1.16, -0.854, -8.118, , , , , , , 179.67, -0.829, -101.81, -78.300, 13.100, -69.807, 20.66, 0.0079, 0.62161, -0.7832, 0.00012, 407, 100,
 19:06:13.713,e8:da:bf:c6:3e:4f, 2015-01-01 00:24:29.265, -0.375, -0.01, -0.906, 0.244, -0.244, -3.784, , , , , , , 179.665, -0.818, -101.744, -78.300, 13.100, -69.807, 20.66, 0.0079, 0.62161, -0.7832, 0.00012, 407, 100,
 19:06:13.729,e8:da:bf:c6:3e:4f, 2015-01-01 00:24:29.265, -0.316, -0.004, -0.88, 1.648, 0.427, 4.272, , , , , , , 179.676, -0.824, -101.755, -78.300, 13.100, -69.807, 20.66, 0.0079, 0.62161, -0.7832, 0.00012, 407, 100,
 19:06:13.729,e8:da:bf:c6:3e:4f, 2015-01-01 00:24:29.265, -0.183, 0.016, -1.026, 0.305, 1.343, 9.277, , , , , , , 179.692, -0.835, -101.827, -78.300, 13.100, -69.807, 20.66, 0.0079, 0.62161, -0.7832, 0.00012, 407, 100,
 19:06:13.729,e8:da:bf:c6:3e:4f, 2015-01-01 00:24:29.265, -0.07, 0.019, -1.112, -1.709, 0.854, 11.963, , , , , , , 179.681, -0.846, -101.942, -78.300, 13.100, -69.807, 20.66, 0.0079, 0.62161, -0.7832, 0.00012, 407, 100,
 19:06:13.729,e8:da:bf:c6:3e:4f, 2015-01-01 00:24:29.265, -0.415, 0.01, -0.995, -1.16, -4.822, 6.958, , , , , , , 179.665, -0.829, -102.041, -78.300, 13.100, -69.807, 20.66, 0.0079, 0.62161, -0.7832, 0.00012, 407, 100,
 19:06:13.729,e8:da:bf:c6:3e:4f, 2015-01-01 00:24:29.265, -1.547, 0.006, -0.919, 2.197, -7.263, 3.357, , , , , , , 179.676, -0.758, -102.079, -78.300, 13.100, -69.807, 20.66, 0.0079, 0.62161, -0.7832, 0.00012, 407, 100,
 19:06:13.729,e8:da:bf:c6:3e:4f, 2015-01-01 00:24:29.265, -2.562, -0.023, -1.065, -0.061, -7.324, 33.813, , , , , , , 179.692, -0.687, -102.255, -78.300, 13.100, -69.807, 20.66, 0.0079, 0.62161, -0.7832, 0.00012, 407, 100,
 19:06:13.729,e8:da:bf:c6:3e:4f, 2015-01-01 00:24:29.265, -3.084, -0.102, -1.056, -1.587, -3.296, 75.562, , , , , , , 179.681, -0.632, -102.827, -78.300, 13.100, -69.807, 20.66, 0.0079, 0.62161, -0.7832, 0.00012, 407, 100,
 19:06:13.729,e8:da:bf:c6:3e:4f, 2015-01-01 00:24:29.265, -2.63, -0.242, -0.859, -0.183, 3.479, 126.892, , , , , , , 179.681, -0.648, -103.859, -78.300, 13.100, -69.807, 20.66, 0.0079, 0.62161, -0.7832, 0.00012, 407, 100,
 19:06:13.729,e8:da:bf:c6:3e:4f, 2015-01-01 00:24:29.265, -1.702, -0.378, -0.792, 0.61, 7.629, 168.152, , , , , , , 179.698, -0.714, -105.37, -78.300, 13.100, -69.807, 20.66, 0.0079, 0.62161, -0.7832, 0.00012, 407, 100,
 19:06:13.729,e8:da:bf:c6:3e:4f, 2015-01-01 00:24:29.265, -0.616, -0.447, -0.925, -0.366, 5.188, 191.223, , , , , , , 179.72, -0.802, -107.188, -78.300, 13.100, -69.807, 20.66, 0.0079, 0.62161, -0.7832, 0.00012, 407, 100,
 19:06:13.730,e8:da:bf:c6:3e:4f, 2015-01-01 00:24:29.265, 0.061, -0.43, -0.975, 0.061, 3.052, 196.411, , , , , , , 179.736, -0.846, -109.144, -78.300, 13.100, -69.807, 20.66, 0.0079, 0.62161, -0.7832, 0.00012, 407, 100,
 19:06:13.730,e8:da:bf:c6:3e:4f, 2015-01-01 00:24:29.265, 0.287, -0.4, -1.1, -0.793, 0.305, 192.627, , , , , , , 179.758, -0.868, -111.088, -78.300, 13.100, -69.807, 20.66, 0.0079, 0.62161, -0.7832, 0.00012, 407, 100,
 19:06:13.762,e8:da:bf:c6:3e:4f, 2015-01-01 00:24:29.265, 0.357, -0.387, -1.177, -2.991, 1.221, 188.538, , , , , , , 179.758, -0.884, -112.994, -78.300, 13.100, -69.807, 20.66, 0.0079, 0.62161, -0.7832, 0.00012, 407, 100,
 19:06:13.762,e8:da:bf:c6:3e:4f, 2015-01-01 00:24:29.265, 0.429, -0.394, -1.075, -3.601, -1.709, 183.472, , , , , , , 179.747, -0.895, -114.862, -78.300, 13.100, -69.807, 20.66, 0.0079, 0.62161, -0.7832, 0.00012, 407, 100,
 19:06:13.762,e8:da:bf:c6:3e:4f, 2015-01-01 00:24:29.265, 0.382, -0.395, -0.848, -1.16, -1.648, 173.889, , , , , , , 179.747, -0.884, -116.647, -78.300, 13.100, -69.807, 20.66, 0.0079, 0.62161, -0.7832, 0.00012, 407, 100,
 19:06:13.762,e8:da:bf:c6:3e:4f, 2015-01-01 00:24:29.265, 0.264, -0.374, -0.771, 1.526, -0.61, 168.457, , , , , , , 179.769, -0.884, -118.35, -78.300, 13.100, -69.807, 20.66, 0.0079, 0.62161, -0.7832, 0.00012, 407, 100,
 19:06:13.794,e8:da:bf:c6:3e:4f, 2015-01-01 00:24:29.265, 0.135, -0.335, -0.947, 1.343, -2.258, 164.551, , , , , , , 179.808, -0.873, -120.02, -78.300, 13.100, -69.807, 20.66, 0.0079, 0.62161, -0.7832, 0.00012, 407, 100,
 19:06:13.794,e8:da:bf:c6:3e:4f, 2015-01-01 00:24:29.265, 0.051, -0.319, -1.136, -0.977, -1.099, 163.452, , , , , , , 179.83, -0.868, -121.657, -78.300, 13.100, -69.807, 20.66, 0.0079, 0.62161, -0.7832, 0.00012, 407, 100,
 19:06:13.794,e8:da:bf:c6:3e:4f, 2015-01-01 00:24:29.265, 0.052, -0.329, -1.143, -2.625, -1.16, 164.551, , , , , , , 179.83, -0.857, -123.3, -78.300, 13.100, -69.807, 20.66, 0.0079, 0.62161, -0.7832, 0.00012, 407, 100,
 19:06:13.794,e8:da:bf:c6:3e:4f, 2015-01-01 00:24:29.265, 0.038, -0.345, -0.97, -1.709, -1.648, 162.781, , , , , , , 179.824, -0.857, -124.942, -78.300, 13.100, -69.807, 20.66, 0.0079, 0.62161, -0.7832, 0.00012, 407, 100,
 19:06:13.923,e8:da:bf:c6:3e:4f, 2015-01-01 00:24:29.265, 0.002, -0.346, -0.826, 0.732, -3.174, 159.79, , , , , , , 179.841, -0.835, -126.552, -78.300, 13.100, -69.807, 20.66, 0.00604, 0.43121, -0.90216, -0.00018, 407, 100,
 19:06:13.949,e8:da:bf:c6:3e:4f, 2015-01-01 00:24:29.625, -0.296, -0.326, -0.909, 1.404, -2.38, 154.846, , , , , , , 179.868, -0.813, -128.128, -78.300, 13.100, -69.807, 20.66, 0.00604, 0.43121, -0.90216, -0.00018, 407, 100,
 19:06:13.949,e8:da:bf:c6:3e:4f, 2015-01-01 00:24:29.625, -0.566, -0.325, -1.115, -0.488, -1.16, 161.438, , , , , , , 179.896, -0.797, -129.688, -78.300, 13.100, -69.807, 20.66, 0.00604, 0.43121, -0.90216, -0.00018, 407, 100,
 19:06:13.949,e8:da:bf:c6:3e:4f, 2015-01-01 00:24:29.625, -0.435, -0.374, -1.091, -2.93, -1.099, 182.007, , , , , , , 179.89, -0.791, -131.435, -78.300, 13.100, -69.807, 20.66, 0.00604, 0.43121, -0.90216, -0.00018, 407, 100,
 19:06:13.965,e8:da:bf:c6:3e:4f, 2015-01-01 00:24:29.625, -0.391, -0.426, -0.887, -0.366, 0.061, 182.068, , , , , , , 179.89, -0.786, -133.253, -78.300, 13.100, -69.807, 20.66, 0.00604, 0.43121, -0.90216, -0.00018, 407, 100,
 19:06:13.965,e8:da:bf:c6:3e:4f, 2015-01-01 00:24:29.625, -0.103, -0.46, -0.846, 0.793, 0.977, 194.885, , , , , , , 179.918, -0.807, -135.148, -78.300, 13.100, -69.807, 20.66, 0.00604, 0.43121, -0.90216, -0.00018, 407, 100,
 19:06:13.965,e8:da:bf:c6:3e:4f, 2015-01-01 00:24:29.625, 0.085, -0.448, -1.011, -0.305, 0.366, 193.848, , , , , , , 179.945, -0.807, -137.104, -78.300, 13.100, -69.807, 20.66, 0.00604, 0.43121, -0.90216, -0.00018, 407, 100,
 19:06:13.965,e8:da:bf:c6:3e:4f, 2015-01-01 00:24:29.625, 0.126, -0.432, -1.138, -2.319, -0.366, 190.186, , , , , , , 179.951, -0.818, -139.021, -78.300, 13.100, -69.807, 20.66, 0.00604, 0.43121, -0.90216, -0.00018, 407, 100,
 19:06:13.965,e8:da:bf:c6:3e:4f, 2015-01-01 00:24:29.625, 0.098, -0.438, -1.043, -2.563, -0.793, 188.049, , , , , , , 179.945, -0.807, -140.916, -78.300, 13.100, -69.807, 20.66, 0.00604, 0.43121, -0.90216, -0.00018, 407, 100,
 19:06:13.965,e8:da:bf:c6:3e:4f, 2015-01-01 00:24:29.625, 0.067, -0.452, -0.862, -0.122, -0.977, 186.707, , , , , , , 179.951, -0.807, -142.789, -78.300, 13.100, -69.807, 20.66, 0.00604, 0.43121, -0.90216, -0.00018, 407, 100,
 19:06:13.966,e8:da:bf:c6:3e:4f, 2015-01-01 00:24:29.625, 0.075, -0.449, -0.867, 1.099, -0.977, 186.89, , , , , , , 179.978, -0.797, -144.657, -78.300, 13.100, -69.807, 20.66, 0.00604, 0.43121, -0.90216, -0.00018, 407, 100,
 19:06:13.966,e8:da:bf:c6:3e:4f, 2015-01-01 00:24:29.625, 0.094, -0.427, -1.035, -0.488, -1.038, 186.34, , , , , , , -180, -0.797, -146.525, -78.300, 13.100, -69.807, 20.66, 0.00604, 0.43121, -0.90216, -0.00018, 407, 100,
 19:06:13.982,e8:da:bf:c6:3e:4f, 2015-01-01 00:24:29.625, 0.079, -0.415, -1.106, -2.197, -1.16, 184.57, , , , , , , -179.995, -0.78, -148.381, -78.300, 13.100, -69.807, 20.66, 0.00604, 0.43121, -0.90216, -0.00018, 407, 100,
 19:06:13.982,e8:da:bf:c6:3e:4f, 2015-01-01 00:24:29.625, 0.056, -0.427, -0.999, -1.831, -1.282, 183.655, , , , , , , -180, -0.775, -150.222, -78.300, 13.100, -69.807, 20.66, 0.00604, 0.43121, -0.90216, -0.00018, 407, 100,
 19:06:13.982,e8:da:bf:c6:3e:4f, 2015-01-01 00:24:29.625, 0.065, -0.442, -0.879, 0, -1.16, 183.899, , , , , , , -179.989, -0.758, -152.062, -78.300, 13.100, -69.807, 20.66, 0.00604, 0.43121, -0.90216, -0.00018, 407, 100,
 19:06:13.982,e8:da:bf:c6:3e:4f, 2015-01-01 00:24:29.625, 0.09, -0.428, -0.923, 0.427, -0.916, 183.594, , , , , , , -179.967, -0.753, -153.902, -78.300, 13.100, -69.807, 20.66, 0.00604, 0.43121, -0.90216, -0.00018, 407, 100,
 19:06:13.998,e8:da:bf:c6:3e:4f, 2015-01-01 00:24:29.625, 0.211, -0.396, -1.025, -0.977, 1.526, 184.937, , , , , , , -179.951, -0.753, -155.748, -78.300, 13.100, -69.807, 20.66, 0.00604, 0.43121, -0.90216, -0.00018, 407, 100,
 19:06:13.998,e8:da:bf:c6:3e:4f, 2015-01-01 00:24:29.625, 0.592, -0.383, -0.999, -0.732, 0.061, 187.317, , , , , , , -179.94, -0.769, -157.615, -78.300, 13.100, -69.807, 20.66, 0.00604, 0.43121, -0.90216, -0.00018, 407, 100,
 19:06:13.998,e8:da:bf:c6:3e:4f, 2015-01-01 00:24:29.625, 0.961, -0.356, -0.955, 0.183, -1.099, 174.927, , , , , , , -179.923, -0.753, -159.434, -78.300, 13.100, -69.807, 20.66, 0.00604, 0.43121, -0.90216, -0.00018, 407, 100,
 19:06:13.998,e8:da:bf:c6:3e:4f, 2015-01-01 00:24:29.625, 1.922, -0.322, -1.026, -0.427, 2.136, 164.917, , , , , , , -179.907, -0.764, -161.12, -78.300, 13.100, -69.807, 20.66, 0.00604, 0.43121, -0.90216, -0.00018, 407, 100,
 19:06:14.030,e8:da:bf:c6:3e:4f, 2015-01-01 00:24:29.625, 3.009, -0.246, -1.062, -0.732, 0.732, 139.526, , , , , , , -179.901, -0.769, -162.669, -78.300, 13.100, -69.807, 20.66, 0.00604, 0.43121, -0.90216, -0.00018, 407, 100,
 19:06:14.030,e8:da:bf:c6:3e:4f, 2015-01-01 00:24:29.625, 3.408, -0.126, -0.963, -0.671, 0.305, 84.106, , , , , , , -179.896, -0.786, -163.762, -78.300, 13.100, -69.807, 20.66, 0.00604, 0.43121, -0.90216, -0.00018, 407, 100,
 19:06:14.030,e8:da:bf:c6:3e:4f, 2015-01-01 00:24:29.625, 3.095, -0.02, -0.881, 0.549, -4.272, 34.607, , , , , , , -179.89, -0.758, -164.333, -78.300, 13.100, -69.807, 20.66, 0.00604, 0.43121, -0.90216, -0.00018, 407, 100,
 19:06:14.030,e8:da:bf:c6:3e:4f, 2015-01-01 00:24:29.625, 2.116, 0.042, -0.917, 0.793, -6.287, -12.817, , , , , , , -179.879, -0.703, -164.41, -78.300, 13.100, -69.807, 20.66, 0.00604, 0.43121, -0.90216, -0.00018, 407, 100,
 19:06:14.216,e8:da:bf:c6:3e:4f, 2015-01-01 00:24:29.625, 1.03, 0.031, -0.982, 0.061, -1.648, -38.025, , , , , , , -179.879, -0.659, -164.125, -78.300, 13.100, -69.807, 20.66, 0.00604, 0.43121, -0.90216, -0.00018, 407, 100,
 19:06:14.217,e8:da:bf:c6:3e:4f, 2015-01-01 00:24:29.625, 0.189, 0.019, -0.962, 1.526, -2.014, -52.795, , , , , , , -179.874, -0.648, -163.663, -78.300, 13.100, -69.807, 20.66, 0.0047, 0.14359, -0.98956, -0.00034, 407, 100,
 19:06:14.217,e8:da:bf:c6:3e:4f, 2015-01-01 00:24:29.625, -0.339, 0.012, -1.048, -0.977, 0.183, -55.786, , , , , , , -179.874, -0.648, -163.103, -78.300, 13.100, -69.807, 20.66, 0.0047, 0.14359, -0.98956, -0.00034, 407, 100,
 19:06:14.217,e8:da:bf:c6:3e:4f, 2015-01-01 00:24:29.625, -0.496, -0.008, -1.097, -2.502, -2.319, -43.579, , , , , , , -179.901, -0.643, -162.609, -78.300, 13.100, -69.807, 20.66, 0.0047, 0.14359, -0.98956, -0.00034, 407, 100,
 19:06:14.217,e8:da:bf:c6:3e:4f, 2015-01-01 00:24:29.625, -0.718, -0.022, -1.026, -1.953, -3.479, -35.706, , , , , , , -179.923, -0.604, -162.23, -78.300, 13.100, -69.807, 20.66, 0.0047, 0.14359, -0.98956, -0.00034, 407, 100,
 19:06:14.217,e8:da:bf:c6:3e:4f, 2015-01-01 00:24:29.625, -0.937, -0.043, -0.917, -0.244, -1.343, -24.963, , , , , , , -179.94, -0.582, -161.917, -78.300, 13.100, -69.807, 20.66, 0.0047, 0.14359, -0.98956, -0.00034, 407, 100,
 19:06:14.217,e8:da:bf:c6:3e:4f, 2015-01-01 00:24:29.625, -0.995, -0.044, -0.865, 0.732, -0.366, -7.08, , , , , , , -179.934, -0.577, -161.774, -78.300, 13.100, -69.807, 20.66, 0.0047, 0.14359, -0.98956, -0.00034, 407, 100,
 19:06:14.217,e8:da:bf:c6:3e:4f, 2015-01-01 00:24:29.625, -0.894, -0.024, -0.915, 1.038, 1.038, 6.287, , , , , , , -179.923, -0.582, -161.774, -78.300, 13.100, -69.807, 20.66, 0.0047, 0.14359, -0.98956, -0.00034, 407, 100,
 19:06:14.234,e8:da:bf:c6:3e:4f, 2015-01-01 00:24:29.625, -0.59, -0.013, -0.969, 0.793, 2.93, 21.545, , , , , , , -179.912, -0.604, -161.933, -78.300, 13.100, -69.807, 20.66, 0.0047, 0.14359, -0.98956, -0.00034, 407, 100,
 19:06:14.234,e8:da:bf:c6:3e:4f, 2015-01-01 00:24:29.625, -0.3, -0.016, -0.972, 0.916, 4.395, 27.832, , , , , , , -179.907, -0.643, -162.186, -78.300, 13.100, -69.807, 20.66, 0.0047, 0.14359, -0.98956, -0.00034, 407, 100,
 19:06:14.234,e8:da:bf:c6:3e:4f, 2015-01-01 00:24:29.625, -0.047, -0.025, -1.011, 0.549, 3.723, 32.959, , , , , , , -179.89, -0.687, -162.499, -78.300, 13.100, -69.807, 20.66, 0.0047, 0.14359, -0.98956, -0.00034, 407, 100,
 19:06:14.234,e8:da:bf:c6:3e:4f, 2015-01-01 00:24:29.625, 0.088, -0.016, -1.104, -0.916, 0.244, 33.63, , , , , , , -179.89, -0.703, -162.834, -78.300, 13.100, -69.807, 20.66, 0.0047, 0.14359, -0.98956, -0.00034, 407, 100,
 19:06:14.234,e8:da:bf:c6:3e:4f, 2015-01-01 00:24:29.625, 0.139, 0, -1.053, -1.648, 0.061, 32.166, , , , , , , -179.907, -0.703, -163.163, -78.300, 13.100, -69.807, 20.66, 0.0047, 0.14359, -0.98956, -0.00034, 407, 100,
 19:06:14.234,e8:da:bf:c6:3e:4f, 2015-01-01 00:24:29.625, 0.25, 0.004, -0.883, -0.183, 2.075, 31.311, , , , , , , -179.912, -0.72, -163.482, -78.300, 13.100, -69.807, 20.66, 0.0047, 0.14359, -0.98956, -0.00034, 407, 100,
 19:06:14.234,e8:da:bf:c6:3e:4f, 2015-01-01 00:24:29.625, 0.639, -0.001, -0.794, 2.808, 1.038, 31.982, , , , , , , -179.896, -0.736, -163.806, -78.300, 13.100, -69.807, 20.66, 0.0047, 0.14359, -0.98956, -0.00034, 407, 100,
 19:06:14.234,e8:da:bf:c6:3e:4f, 2015-01-01 00:24:29.625, 0.869, 0.019, -0.967, 2.319, -0.488, 17.944, , , , , , , -179.863, -0.736, -164.064, -78.300, 13.100, -69.807, 20.66, 0.0047, 0.14359, -0.98956, -0.00034, 407, 100,
 19:06:14.251,e8:da:bf:c6:3e:4f, 2015-01-01 00:24:29.625, 0.858, 0.024, -1.156, -0.977, 0.061, 1.038, , , , , , , -179.857, -0.736, -164.141, -78.300, 13.100, -69.807, 20.66, 0.0047, 0.14359, -0.98956, -0.00034, 407, 100,
 19:06:14.251,e8:da:bf:c6:3e:4f, 2015-01-01 00:24:29.625, 0.713, 0.006, -1.098, -1.648, -1.465, -9.766, , , , , , , -179.874, -0.731, -164.097, -78.300, 13.100, -69.807, 20.66, 0.0047, 0.14359, -0.98956, -0.00034, 407, 100,
 19:06:14.251,e8:da:bf:c6:3e:4f, 2015-01-01 00:24:29.625, 0.358, -0.005, -0.925, -0.122, -1.831, -22.766, , , , , , , -179.879, -0.714, -163.927, -78.300, 13.100, -69.807, 20.66, 0.0047, 0.14359, -0.98956, -0.00034, 407, 100,
 19:06:14.251,e8:da:bf:c6:3e:4f, 2015-01-01 00:24:29.625, 0.082, 0.007, -0.919, 0.122, -2.136, -27.893, , , , , , , -179.879, -0.692, -163.669, -78.300, 13.100, -69.807, 20.66, 0.0047, 0.14359, -0.98956, -0.00034, 407, 100,
 19:06:14.267,e8:da:bf:c6:3e:4f, 2015-01-01 00:24:29.625, -0.084, 0.023, -1.014, -1.038, -0.244, -28.931, , , , , , , -179.89, -0.681, -163.383, -78.300, 13.100, -69.807, 20.66, 0.0047, 0.14359, -0.98956, -0.00034, 407, 100,
 19:06:14.267,e8:da:bf:c6:3e:4f, 2015-01-01 00:24:29.625, -0.128, 0.01, -1.014, -1.099, -0.488, -25.818, , , , , , , -179.901, -0.681, -163.109, -78.300, 13.100, -69.807, 20.66, 0.0047, 0.14359, -0.98956, -0.00034, 407, 100,
 19:06:14.267,e8:da:bf:c6:3e:4f, 2015-01-01 00:24:29.980, -0.131, -0.019, -0.939, -0.061, -0.427, -22.583, , , , , , , -179.912, -0.681, -162.872, -78.300, 13.100, -69.807, 20.66, 0.0047, 0.14359, -0.98956, -0.00034, 407, 100,
 19:06:14.267,e8:da:bf:c6:3e:4f, 2015-01-01 00:24:29.980, -0.201, -0.037, -0.925, 1.038, -1.221, -21.179, , , , , , , -179.907, -0.67, -162.658, -78.300, 13.100, -69.807, 20.66, 0.0047, 0.14359, -0.98956, -0.00034, 407, 100,
 19:06:14.424,e8:da:bf:c6:3e:4f, 2015-01-01 00:24:29.980, -0.35, -0.022, -1.028, 0, -1.16, -18.799, , , , , , , -179.901, -0.659, -162.455, -78.300, 13.100, -69.807, 20.66, 0.0047, 0.14359, -0.98956, -0.00034, 407, 100,
 19:06:14.424,e8:da:bf:c6:3e:4f, 2015-01-01 00:24:29.980, -0.413, 0.004, -1.068, -1.343, -1.038, -10.925, , , , , , , -179.912, -0.648, -162.307, -78.300, 13.100, -69.807, 20.66, 0.0047, 0.14359, -0.98956, -0.00034, 407, 100,
 19:06:14.424,e8:da:bf:c6:3e:4f, 2015-01-01 00:24:29.980, -0.455, 0.02, -0.97, -0.977, -0.671, -5.249, , , , , , , -179.929, -0.637, -162.235, -78.300, 13.100, -69.807, 20.66, 0.0047, 0.14359, -0.98956, -0.00034, 407, 100,
 19:06:14.424,e8:da:bf:c6:3e:4f, 2015-01-01 00:24:29.980, -0.415, 0, -0.852, 0.977, 0.122, 2.563, , , , , , , -179.923, -0.637, -162.224, -78.300, 13.100, -69.807, 20.66, 0.0047, 0.14359, -0.98956, -0.00034, 407, 100,
 19:06:14.440,e8:da:bf:c6:3e:4f, 2015-01-01 00:24:29.980, -0.323, -0.02, -0.892, 1.831, 1.465, 8.911, , , , , , , -179.907, -0.648, -162.285, -78.300, 13.100, -69.807, 20.66, 0.0047, 0.14359, -0.98956, -0.00034, 407, 100,
 19:06:14.440,e8:da:bf:c6:3e:4f, 2015-01-01 00:24:29.980, -0.167, -0.023, -1.027, 0.854, 2.625, 14.343, , , , , , , -179.89, -0.67, -162.405, -78.300, 13.100, -69.807, 20.66, 0.0047, 0.14359, -0.98956, -0.00034, 407, 100,
 19:06:14.440,e8:da:bf:c6:3e:4f, 2015-01-01 00:24:29.980, -0.016, -0.007, -1.109, -0.854, 2.075, 16.785, , , , , , , -179.89, -0.698, -162.57, -78.300, 13.100, -69.807, 20.66, 0.0047, 0.14359, -0.98956, -0.00034, 407, 100,
 19:06:14.440,e8:da:bf:c6:3e:4f, 2015-01-01 00:24:29.980, 0.041, 0.005, -1.037, -1.038, 0.671, 15.381, , , , , , , -179.901, -0.709, -162.735, -78.300, 13.100, -69.807, 20.66, 0.0047, 0.14359, -0.98956, -0.00034, 407, 100,
 19:06:14.440,e8:da:bf:c6:3e:4f, 2015-01-01 00:24:29.980, 0.031, 0.006, -0.931, 0, 0.366, 13.977, , , , , , , -179.907, -0.714, -162.883, -78.300, 13.100, -69.807, 20.66, 0.0047, 0.14359, -0.98956, -0.00034, 407, 100,
 19:06:14.440,e8:da:bf:c6:3e:4f, 2015-01-01 00:24:29.980, 0.034, -0.001, -0.923, 0.305, 0, 14.587, , , , , , , -179.901, -0.714, -163.026, -78.300, 13.100, -69.807, 20.66, 0.0047, 0.14359, -0.98956, -0.00034, 407, 100,
 19:06:14.440,e8:da:bf:c6:3e:4f, 2015-01-01 00:24:29.980, 0.04, -0.008, -0.967, 0.305, 0.244, 15.198, , , , , , , -179.896, -0.72, -163.174, -78.300, 13.100, -69.807, 20.66, 0.0047, 0.14359, -0.98956, -0.00034, 407, 100,
 19:06:14.441,e8:da:bf:c6:3e:4f, 2015-01-01 00:24:29.980, 0.105, -0.007, -1, -0.061, 0.793, 18.066, , , , , , , -179.896, -0.725, -163.339, -78.300, 13.100, -69.807, 20.66, 0.0047, 0.14359, -0.98956, -0.00034, 407, 100,
 19:06:14.457,e8:da:bf:c6:3e:4f, 2015-01-01 00:24:29.980, 0.382, 0, -0.982, 0.427, 0.122, 20.996, , , , , , , -179.89, -0.731, -163.548, -78.300, 13.100, -69.807, 20.66, 0.0047, 0.14359, -0.98956, -0.00034, 407, 100,
 19:06:14.457,e8:da:bf:c6:3e:4f, 2015-01-01 00:24:29.980, 0.441, 0.023, -0.983, 0.549, 0.061, 8.362, , , , , , , -179.885, -0.731, -163.702, -78.300, 13.100, -69.807, 20.66, 0.0047, 0.14359, -0.98956, -0.00034, 407, 100,
 19:06:14.457,e8:da:bf:c6:3e:4f, 2015-01-01 00:24:29.980, 0.758, 0.03, -0.997, -0.244, 3.418, 3.479, , , , , , , -179.879, -0.758, -163.735, -78.300, 13.100, -69.807, 20.66, 0.0047, 0.14359, -0.98956, -0.00034, 407, 100,
 19:06:14.457,e8:da:bf:c6:3e:4f, 2015-01-01 00:24:29.980, 2.034, 0.03, -1.035, 0.244, -1.465, 7.263, , , , , , , -179.879, -0.758, -163.817, -78.300, 13.100, -69.807, 20.66, 0.0047, 0.14359, -0.98956, -0.00034, 407, 100,
 19:06:14.489,e8:da:bf:c6:3e:4f, 2015-01-01 00:24:29.980, 2.881, 0.05, -1.06, -1.526, 2.625, -35.461, , , , , , , -179.885, -0.764, -163.685, -78.300, 13.100, -69.807, 20.66, 0.0047, 0.14359, -0.98956, -0.00034, 407, 100,
 19:06:14.489,e8:da:bf:c6:3e:4f, 2015-01-01 00:24:29.980, 3.249, -0.007, -0.93, -0.366, 0.549, -79.529, , , , , , , -179.907, -0.786, -163.081, -78.300, 13.100, -69.807, 20.66, 0.0047, 0.14359, -0.98956, -0.00034, 407, 100,
 19:06:14.489,e8:da:bf:c6:3e:4f, 2015-01-01 00:24:29.980, 2.58, -0.101, -0.83, 1.953, -4.944, -132.08, , , , , , , -179.907, -0.764, -162.01, -78.300, 13.100, -69.807, 20.66, 0.0047, 0.14359, -0.98956, -0.00034, 407, 100,
 19:06:14.489,e8:da:bf:c6:3e:4f, 2015-01-01 00:24:29.980, 1.574, -0.241, -0.951, 1.038, -4.272, -171.692, , , , , , , -179.901, -0.714, -160.45, -78.300, 13.100, -69.807, 20.66, 0.0047, 0.14359, -0.98956, -0.00034, 407, 100,
 19:06:14.520,e8:da:bf:c6:3e:4f, 2015-01-01 00:24:29.980, 0.614, -0.343, -1.02, 0.854, 1.77, -189.941, , , , , , , -179.912, -0.703, -158.632, -78.300, 13.100, -69.807, 20.66, 0.0047, 0.14359, -0.98956, -0.00034, 407, 100,
 19:06:14.520,e8:da:bf:c6:3e:4f, 2015-01-01 00:24:29.980, -0.023, -0.396, -1.018, 0.671, -0.183, -200.012, , , , , , , -179.918, -0.709, -156.665, -78.300, 13.100, -69.807, 20.66, 0.0047, 0.14359, -0.98956, -0.00034, 407, 100,
 19:06:14.520,e8:da:bf:c6:3e:4f, 2015-01-01 00:24:29.980, -0.333, -0.423, -1.031, -0.977, 2.258, -196.777, , , , , , , -179.94, -0.731, -154.677, -78.300, 13.100, -69.807, 20.66, 0.0047, 0.14359, -0.98956, -0.00034, 407, 100,
 19:06:14.520,e8:da:bf:c6:3e:4f, 2015-01-01 00:24:29.980, -0.235, -0.441, -0.998, -0.244, 0.305, -183.716, , , , , , , -179.967, -0.742, -152.776, -78.300, 13.100, -69.807, 20.66, 0.0047, 0.14359, -0.98956, -0.00034, 407, 100,
 19:06:14.655,e8:da:bf:c6:3e:4f, 2015-01-01 00:24:29.980, -0.191, -0.429, -0.946, 0.61, 0.366, -181.03, , , , , , , -179.978, -0.747, -150.969, -78.300, 13.100, -69.807, 20.66, 0.0047, 0.14359, -0.98956, -0.00034, 407, 100,
 19:06:14.655,e8:da:bf:c6:3e:4f, 2015-01-01 00:24:29.980, -0.207, -0.414, -0.937, 1.038, 1.343, -179.016, , , , , , , -179.989, -0.758, -149.161, -78.300, 13.100, -69.807, 20.66, 0.00519, 0.26581, -0.96396, -0.00031, 407, 100,
 19:06:14.655,e8:da:bf:c6:3e:4f, 2015-01-01 00:24:29.980, -0.182, -0.388, -0.991, 0.916, 1.465, -173.95, , , , , , , -179.995, -0.775, -147.404, -78.300, 13.100, -69.807, 20.66, 0.00519, 0.26581, -0.96396, -0.00031, 407, 100,
 19:06:14.655,e8:da:bf:c6:3e:4f, 2015-01-01 00:24:29.980, -0.114, -0.366, -1.03, -0.061, 2.319, -170.776, , , , , , , 179.989, -0.786, -145.684, -78.300, 13.100, -69.807, 20.66, 0.00519, 0.26581, -0.96396, -0.00031, 407, 100,
 19:06:14.672,e8:da:bf:c6:3e:4f, 2015-01-01 00:24:30.340, -0.063, -0.366, -0.984, 0.305, 1.282, -169.067, , , , , , , 179.973, -0.807, -143.987, -78.300, 13.100, -69.807, 20.66, 0.00519, 0.26581, -0.96396, -0.00031, 407, 100,
 19:06:14.672,e8:da:bf:c6:3e:4f, 2015-01-01 00:24:30.340, -0.056, -0.368, -0.947, 0.916, 0.916, -168.457, , , , , , , 179.962, -0.813, -142.3, -78.300, 13.100, -69.807, 20.66, 0.00519, 0.26581, -0.96396, -0.00031, 407, 100,
 19:06:14.672,e8:da:bf:c6:3e:4f, 2015-01-01 00:24:30.340, -0.026, -0.363, -0.97, 1.038, 1.038, -166.687, , , , , , , 179.956, -0.829, -140.625, -78.300, 13.100, -69.807, 20.66, 0.00519, 0.26581, -0.96396, -0.00031, 407, 100,
 19:06:14.672,e8:da:bf:c6:3e:4f, 2015-01-01 00:24:30.340, -0.019, -0.349, -1.014, 0.549, 2.197, -165.771, , , , , , , 179.945, -0.835, -138.966, -78.300, 13.100, -69.807, 20.66, 0.00519, 0.26581, -0.96396, -0.00031, 407, 100,
 19:06:14.672,e8:da:bf:c6:3e:4f, 2015-01-01 00:24:30.340, 0.088, -0.34, -1.038, -0.061, 1.465, -161.133, , , , , , , 179.929, -0.862, -137.329, -78.300, 13.100, -69.807, 20.66, 0.00519, 0.26581, -0.96396, -0.00031, 407, 100,
 19:06:14.673,e8:da:bf:c6:3e:4f, 2015-01-01 00:24:30.340, 0.497, -0.34, -0.988, 0.305, -0.122, -155.518, , , , , , , 179.912, -0.857, -135.758, -78.300, 13.100, -69.807, 20.66, 0.00519, 0.26581, -0.96396, -0.00031, 407, 100,
 19:06:14.673,e8:da:bf:c6:3e:4f, 2015-01-01 00:24:30.340, 0.493, -0.341, -0.919, 1.343, 0.732, -173.462, , , , , , , 179.901, -0.857, -134.127, -78.300, 13.100, -69.807, 20.66, 0.00519, 0.26581, -0.96396, -0.00031, 407, 100,
 19:06:14.673,e8:da:bf:c6:3e:4f, 2015-01-01 00:24:30.340, 0.348, -0.381, -0.938, 1.038, 2.319, -185.12, , , , , , , 179.89, -0.868, -132.297, -78.300, 13.100, -69.807, 20.66, 0.00519, 0.26581, -0.96396, -0.00031, 407, 100,
 19:06:14.689,e8:da:bf:c6:3e:4f, 2015-01-01 00:24:30.340, 0.293, -0.41, -1.008, 0.977, 0.427, -184.631, , , , , , , 179.879, -0.884, -130.463, -78.300, 13.100, -69.807, 20.66, 0.00519, 0.26581, -0.96396, -0.00031, 407, 100,
 19:06:14.689,e8:da:bf:c6:3e:4f, 2015-01-01 00:24:30.340, 0.106, -0.427, -1.014, 0.305, 0, -193.909, , , , , , , 179.863, -0.873, -128.562, -78.300, 13.100, -69.807, 20.66, 0.00519, 0.26581, -0.96396, -0.00031, 407, 100,
 19:06:14.689,e8:da:bf:c6:3e:4f, 2015-01-01 00:24:30.340, -0.031, -0.444, -0.984, 0.549, 0.427, -192.993, , , , , , , 179.846, -0.879, -126.623, -78.300, 13.100, -69.807, 20.66, 0.00519, 0.26581, -0.96396, -0.00031, 407, 100,
 19:06:14.689,e8:da:bf:c6:3e:4f, 2015-01-01 00:24:30.340, -0.087, -0.447, -0.968, 0.854, 0.61, -190.369, , , , , , , 179.83, -0.868, -124.711, -78.300, 13.100, -69.807, 20.66, 0.00519, 0.26581, -0.96396, -0.00031, 407, 100,
 19:06:14.720,e8:da:bf:c6:3e:4f, 2015-01-01 00:24:30.340, -0.078, -0.443, -0.979, 0.916, 0.854, -188.232, , , , , , , 179.819, -0.873, -122.822, -78.300, 13.100, -69.807, 20.66, 0.00519, 0.26581, -0.96396, -0.00031, 407, 100,
 19:06:14.721,e8:da:bf:c6:3e:4f, 2015-01-01 00:24:30.340, -0.068, -0.439, -0.994, 0.671, 0.854, -186.89, , , , , , , 179.802, -0.868, -120.948, -78.300, 13.100, -69.807, 20.66, 0.00519, 0.26581, -0.96396, -0.00031, 407, 100,
 19:06:14.721,e8:da:bf:c6:3e:4f, 2015-01-01 00:24:30.340, -0.07, -0.436, -0.991, 0.671, 0.977, -185.913, , , , , , , 179.791, -0.879, -119.086, -78.300, 13.100, -69.807, 20.66, 0.00519, 0.26581, -0.96396, -0.00031, 407, 100,
 19:06:14.721,e8:da:bf:c6:3e:4f, 2015-01-01 00:24:30.340, -0.068, -0.427, -0.987, 0.732, 1.038, -184.082, , , , , , , 179.775, -0.873, -117.235, -78.300, 13.100, -69.807, 20.66, 0.00519, 0.26581, -0.96396, -0.00031, 407, 100,
 19:06:14.868,e8:da:bf:c6:3e:4f, 2015-01-01 00:24:30.340, -0.058, -0.417, -1, 0.427, 1.099, -182.617, , , , , , , 179.758, -0.884, -115.406, -78.300, 13.100, -69.807, 20.66, 0.00519, 0.26581, -0.96396, -0.00031, 407, 100,
 19:06:14.869,e8:da:bf:c6:3e:4f, 2015-01-01 00:24:30.340, -0.055, -0.411, -0.988, 0.427, 0.916, -181.824, , , , , , , 179.742, -0.879, -113.588, -78.300, 13.100, -69.807, 20.66, 0.00519, 0.26581, -0.96396, -0.00031, 407, 100,
 19:06:14.869,e8:da:bf:c6:3e:4f, 2015-01-01 00:24:30.340, -0.064, -0.407, -0.967, 0.732, 0.732, -181.152, , , , , , , 179.725, -0.884, -111.769, -78.300, 13.100, -69.807, 20.66, 0.00519, 0.26581, -0.96396, -0.00031, 407, 100,
 19:06:14.869,e8:da:bf:c6:3e:4f, 2015-01-01 00:24:30.340, -0.076, -0.397, -0.957, 0.916, 0.488, -179.81, , , , , , , 179.714, -0.873, -109.968, -78.300, 13.100, -69.807, 20.66, 0.00519, 0.26581, -0.96396, -0.00031, 407, 100,
 19:06:14.885,e8:da:bf:c6:3e:4f, 2015-01-01 00:24:30.340, -0.09, -0.388, -0.962, 1.221, 0.61, -178.894, , , , , , , 179.703, -0.873, -108.177, -78.300, 13.100, -69.807, 20.66, 0.00519, 0.26581, -0.96396, -0.00031, 407, 100,
 19:06:14.885,e8:da:bf:c6:3e:4f, 2015-01-01 00:24:30.340, -0.163, -0.378, -1.002, 0.854, -1.038, -179.565, , , , , , , 179.692, -0.862, -106.392, -78.300, 13.100, -69.807, 20.66, 0.00519, 0.26581, -0.96396, -0.00031, 407, 100,
 19:06:14.885,e8:da:bf:c6:3e:4f, 2015-01-01 00:24:30.340, -1.181, -0.366, -1.001, 1.282, -4.639, -188.538, , , , , , , 179.681, -0.818, -104.551, -78.300, 13.100, -69.807, 20.66, 0.00519, 0.26581, -0.96396, -0.00031, 407, 100,
 19:06:14.885,e8:da:bf:c6:3e:4f, 2015-01-01 00:24:30.340, -2.405, -0.355, -1.087, 0.916, -8.911, -167.358, , , , , , , 179.681, -0.736, -102.744, -78.300, 13.100, -69.807, 20.66, 0.00519, 0.26581, -0.96396, -0.00031, 407, 100,
 19:06:14.885,e8:da:bf:c6:3e:4f, 2015-01-01 00:24:30.340, -3.738, -0.313, -1.088, 0.244, -8.179, -130.737, , , , , , , 179.665, -0.637, -101.272, -78.300, 13.100, -69.807, 20.66, 0.00519, 0.26581, -0.96396, -0.00031, 407, 100,
 19:06:14.885,e8:da:bf:c6:3e:4f, 2015-01-01 00:24:30.340, -4.165, -0.271, -0.892, 2.014, -0.61, -67.078, , , , , , , 179.676, -0.588, -100.283, -78.300, 13.100, -69.807, 20.66, 0.00519, 0.26581, -0.96396, -0.00031, 407, 100,
 19:06:14.885,e8:da:bf:c6:3e:4f, 2015-01-01 00:24:30.340, -3.586, -0.216, -0.772, 1.526, 6.287, -1.099, , , , , , , 179.692, -0.621, -99.998, -78.300, 13.100, -69.807, 20.66, 0.00519, 0.26581, -0.96396, -0.00031, 407, 100,
 19:06:14.885,e8:da:bf:c6:3e:4f, 2015-01-01 00:24:30.340, -2.067, -0.157, -0.895, -1.404, 11.108, 52.063, , , , , , , 179.703, -0.72, -100.283, -78.300, 13.100, -69.807, 20.66, 0.00519, 0.26581, -0.96396, -0.00031, 407, 100,
 19:06:14.901,e8:da:bf:c6:3e:4f, 2015-01-01 00:24:30.340, -0.517, -0.105, -1.007, -4.15, 8.179, 78.857, , , , , , , 179.665, -0.818, -100.992, -78.300, 13.100, -69.807, 20.66, 0.00519, 0.26581, -0.96396, -0.00031, 407, 100,
 19:06:14.901,e8:da:bf:c6:3e:4f, 2015-01-01 00:24:30.340, 0.197, -0.028, -0.946, 0.061, 3.662, 75.806, , , , , , , 179.659, -0.89, -101.772, -78.300, 13.100, -69.807, 20.66, 0.00519, 0.26581, -0.96396, -0.00031, 407, 100,
 19:06:14.901,e8:da:bf:c6:3e:4f, 2015-01-01 00:24:30.340, 1.029, -0.007, -1.08, -0.488, 3.784, 79.712, , , , , , , 179.67, -0.928, -102.541, -78.300, 13.100, -69.807, 20.66, 0.00519, 0.26581, -0.96396, -0.00031, 407, 100,
 19:06:14.901,e8:da:bf:c6:3e:4f, 2015-01-01 00:24:30.340, 1.875, 0.017, -1.269, -3.296, -2.808, 65.674, , , , , , , 179.665, -0.934, -103.31, -78.300, 13.100, -69.807, 20.66, 0.00519, 0.26581, -0.96396, -0.00031, 407, 100,
 19:06:14.933,e8:da:bf:c6:3e:4f, 2015-01-01 00:24:30.340, 1.939, 0.028, -1.04, -4.578, 0.916, 19.47, , , , , , , 179.621, -0.928, -103.7, -78.300, 13.100, -69.807, 20.66, 0.00519, 0.26581, -0.96396, -0.00031, 407, 100,
 19:06:14.933,e8:da:bf:c6:3e:4f, 2015-01-01 00:24:30.340, 1.73, 0.019, -0.654, 1.282, -3.113, -2.686, , , , , , , 179.61, -0.923, -103.777, -78.300, 13.100, -69.807, 20.66, 0.00519, 0.26581, -0.96396, -0.00031, 407, 100,
 19:06:14.933,e8:da:bf:c6:3e:4f, 2015-01-01 00:24:30.340, 0.985, 0.039, -0.64, 5.371, -2.258, -34.18, , , , , , , 179.643, -0.879, -103.574, -78.300, 13.100, -69.807, 20.66, 0.00519, 0.26581, -0.96396, -0.00031, 407, 100,
 19:06:14.933,e8:da:bf:c6:3e:4f, 2015-01-01 00:24:30.340, 0.33, 0.052, -0.982, 3.235, -0.061, -42.664, , , , , , , 179.687, -0.873, -103.167, -78.300, 13.100, -69.807, 20.66, 0.00519, 0.26581, -0.96396, -0.00031, 407, 100,
 19:06:14.964,e8:da:bf:c6:3e:4f, 2015-01-01 00:24:30.340, -0.021, 0.03, -1.197, -0.183, -1.953, -45.349, , , , , , , 179.692, -0.851, -102.728, -78.300, 13.100, -69.807, 20.66, 0.00729, 0.63187, -0.77499, -0.00021, 407, 100,
 19:06:14.964,e8:da:bf:c6:3e:4f, 2015-01-01 00:24:30.340, -0.187, -0.019, -1.158, -1.77, 0, -46.204, , , , , , , 179.676, -0.846, -102.272, -78.300, 13.100, -69.807, 20.66, 0.00729, 0.63187, -0.77499, -0.00021, 407, 100,
 19:06:14.964,e8:da:bf:c6:3e:4f, 2015-01-01 00:24:30.340, -0.438, -0.046, -0.994, -0.671, -2.075, -43.823, , , , , , , 179.654, -0.84, -101.821, -78.300, 13.100, -69.807, 20.66, 0.00729, 0.63187, -0.77499, -0.00021, 407, 100,
 19:06:14.964,e8:da:bf:c6:3e:4f, 2015-01-01 00:24:30.340, -0.78, -0.036, -0.876, 1.465, -2.869, -35.339, , , , , , , 179.659, -0.802, -101.426, -78.300, 13.100, -69.807, 20.66, 0.00729, 0.63187, -0.77499, -0.00021, 407, 100,
 19:06:15.185,e8:da:bf:c6:3e:4f, 2015-01-01 00:24:30.725, -0.963, -0.007, -0.963, 1.099, -0.732, -19.897, , , , , , , 179.67, -0.786, -101.151, -78.300, 13.100, -69.807, 20.66, 0.00729, 0.63187, -0.77499, -0.00021, 407, 100,
 19:06:15.185,e8:da:bf:c6:3e:4f, 2015-01-01 00:24:30.725, -0.948, 0.009, -1.09, -1.404, 0.61, -4.456, , , , , , , 179.67, -0.786, -101.041, -78.300, 13.100, -69.807, 20.66, 0.00729, 0.63187, -0.77499, -0.00021, 407, 100,
 19:06:15.185,e8:da:bf:c6:3e:4f, 2015-01-01 00:24:30.725, -0.708, -0.011, -1.015, -1.587, 1.892, 9.827, , , , , , , 179.648, -0.797, -101.08, -78.300, 13.100, -69.807, 20.66, 0.00729, 0.63187, -0.77499, -0.00021, 407, 100,
 19:06:15.185,e8:da:bf:c6:3e:4f, 2015-01-01 00:24:30.725, -0.363, -0.032, -0.827, 0.977, 2.441, 20.203, , , , , , , 179.648, -0.824, -101.245, -78.300, 13.100, -69.807, 20.66, 0.00729, 0.63187, -0.77499, -0.00021, 407, 100,
 19:06:15.203,e8:da:bf:c6:3e:4f, 2015-01-01 00:24:30.725, -0.081, -0.018, -0.852, 2.258, 2.686, 24.292, , , , , , , 179.67, -0.851, -101.47, -78.300, 13.100, -69.807, 20.66, 0.00729, 0.63187, -0.77499, -0.00021, 407, 100,
 19:06:15.203,e8:da:bf:c6:3e:4f, 2015-01-01 00:24:30.725, 0.063, 0.015, -1.118, -0.366, 0.732, 25.757, , , , , , , 179.687, -0.868, -101.728, -78.300, 13.100, -69.807, 20.66, 0.00729, 0.63187, -0.77499, -0.00021, 407, 100,
 19:06:15.204,e8:da:bf:c6:3e:4f, 2015-01-01 00:24:30.725, 0.117, 0.022, -1.212, -3.235, 0.366, 25.146, , , , , , , 179.665, -0.873, -101.981, -78.300, 13.100, -69.807, 20.66, 0.00729, 0.63187, -0.77499, -0.00021, 407, 100,
 19:06:15.204,e8:da:bf:c6:3e:4f, 2015-01-01 00:24:30.725, 0.163, -0.001, -0.964, -1.709, 0.549, 23.071, , , , , , , 179.643, -0.879, -102.228, -78.300, 13.100, -69.807, 20.66, 0.00729, 0.63187, -0.77499, -0.00021, 407, 100,
 19:06:15.204,e8:da:bf:c6:3e:4f, 2015-01-01 00:24:30.725, 0.174, -0.009, -0.784, 1.16, 1.16, 18.433, , , , , , , 179.643, -0.89, -102.437, -78.300, 13.100, -69.807, 20.66, 0.00729, 0.63187, -0.77499, -0.00021, 407, 100,
 19:06:15.204,e8:da:bf:c6:3e:4f, 2015-01-01 00:24:30.725, 0.277, 0.005, -0.891, 1.648, 0.854, 18.372, , , , , , , 179.665, -0.906, -102.618, -78.300, 13.100, -69.807, 20.66, 0.00729, 0.63187, -0.77499, -0.00021, 407, 100,
 19:06:15.204,e8:da:bf:c6:3e:4f, 2015-01-01 00:24:30.725, 0.491, 0.029, -1.109, -0.793, -0.122, 17.09, , , , , , , 179.67, -0.906, -102.799, -78.300, 13.100, -69.807, 20.66, 0.00729, 0.63187, -0.77499, -0.00021, 407, 100,
 19:06:15.205,e8:da:bf:c6:3e:4f, 2015-01-01 00:24:30.725, 0.486, 0.035, -1.101, -2.136, -0.793, 4.7, , , , , , , 179.654, -0.901, -102.914, -78.300, 13.100, -69.807, 20.66, 0.00729, 0.63187, -0.77499, -0.00021, 407, 100,
 19:06:15.205,e8:da:bf:c6:3e:4f, 2015-01-01 00:24:30.725, 0.424, 0.017, -0.92, -0.427, -0.549, -2.258, , , , , , , 179.643, -0.895, -102.914, -78.300, 13.100, -69.807, 20.66, 0.00729, 0.63187, -0.77499, -0.00021, 407, 100,
 19:06:15.205,e8:da:bf:c6:3e:4f, 2015-01-01 00:24:30.725, 0.323, 0.014, -0.829, 1.709, -0.427, -6.836, , , , , , , 179.648, -0.89, -102.87, -78.300, 13.100, -69.807, 20.66, 0.00729, 0.63187, -0.77499, -0.00021, 407, 100,
 19:06:15.206,e8:da:bf:c6:3e:4f, 2015-01-01 00:24:30.725, 0.206, 0.027, -0.944, 1.343, -0.427, -12.573, , , , , , , 179.665, -0.884, -102.772, -78.300, 13.100, -69.807, 20.66, 0.00729, 0.63187, -0.77499, -0.00021, 407, 100,
 19:06:15.206,e8:da:bf:c6:3e:4f, 2015-01-01 00:24:30.725, 0.123, 0.025, -1.04, 0.122, -1.709, -15.381, , , , , , , 179.67, -0.873, -102.634, -78.300, 13.100, -69.807, 20.66, 0.00729, 0.63187, -0.77499, -0.00021, 407, 100,
 19:06:15.206,e8:da:bf:c6:3e:4f, 2015-01-01 00:24:30.725, 0.008, 0.007, -1.011, 0, -0.916, -19.47, , , , , , , 179.67, -0.857, -102.458, -78.300, 13.100, -69.807, 20.66, 0.00729, 0.63187, -0.77499, -0.00021, 407, 100,
 19:06:15.206,e8:da:bf:c6:3e:4f, 2015-01-01 00:24:30.725, -0.078, -0.004, -0.971, 0.488, -0.061, -19.653, , , , , , , 179.67, -0.851, -102.255, -78.300, 13.100, -69.807, 20.66, 0.00729, 0.63187, -0.77499, -0.00021, 407, 100,
 19:06:15.209,e8:da:bf:c6:3e:4f, 2015-01-01 00:24:30.725, -0.128, 0.002, -0.998, 0.427, 0.366, -17.578, , , , , , , 179.676, -0.851, -102.074, -78.300, 13.100, -69.807, 20.66, 0.00729, 0.63187, -0.77499, -0.00021, 407, 100,
 19:06:15.209,e8:da:bf:c6:3e:4f, 2015-01-01 00:24:30.725, -0.133, 0.013, -1.055, -0.671, 0.122, -14.038, , , , , , , 179.67, -0.851, -101.915, -78.300, 13.100, -69.807, 20.66, 0.00729, 0.63187, -0.77499, -0.00021, 407, 100,
 19:06:15.225,e8:da:bf:c6:3e:4f, 2015-01-01 00:24:30.725, -0.104, 0.007, -1.025, -0.977, -0.183, -10.254, , , , , , , 179.659, -0.851, -101.799, -78.300, 13.100, -69.807, 20.66, 0.00729, 0.63187, -0.77499, -0.00021, 407, 100,
 19:06:15.225,e8:da:bf:c6:3e:4f, 2015-01-01 00:24:30.725, -0.12, -0.001, -0.931, -0.122, -0.61, -9.46, , , , , , , 179.654, -0.846, -101.706, -78.300, 13.100, -69.807, 20.66, 0.00729, 0.63187, -0.77499, -0.00021, 407, 100,
 19:06:15.225,e8:da:bf:c6:3e:4f, 2015-01-01 00:24:30.725, -0.188, 0.002, -0.887, 1.038, -0.793, -8.423, , , , , , , 179.659, -0.835, -101.613, -78.300, 13.100, -69.807, 20.66, 0.00729, 0.63187, -0.77499, -0.00021, 407, 100,
 19:06:15.225,e8:da:bf:c6:3e:4f, 2015-01-01 00:24:30.725, -0.242, 0.017, -0.966, 0.854, -0.183, -4.944, , , , , , , 179.665, -0.829, -101.547, -78.300, 13.100, -69.807, 20.66, 0.00729, 0.63187, -0.77499, -0.00021, 407, 100,
 19:06:15.278,e8:da:bf:c6:3e:4f, 2015-01-01 00:24:30.725, -0.216, 0.019, -1.061, -0.366, 0.305, 0, , , , , , , 179.67, -0.829, -101.53, -78.300, 13.100, -69.807, 20.66, 0.00729, 0.63187, -0.77499, -0.00021, 407, 100,
 19:06:15.278,e8:da:bf:c6:3e:4f, 2015-01-01 00:24:30.725, -0.149, 0, -1.047, -1.038, 0.488, 3.174, , , , , , , 179.659, -0.835, -101.552, -78.300, 13.100, -69.807, 20.66, 0.00729, 0.63187, -0.77499, -0.00021, 407, 100,
 19:06:15.278,e8:da:bf:c6:3e:4f, 2015-01-01 00:24:30.725, -0.096, -0.018, -0.949, -0.122, 0.488, 4.456, , , , , , , 179.654, -0.84, -101.591, -78.300, 13.100, -69.807, 20.66, 0.00729, 0.63187, -0.77499, -0.00021, 407, 100,
 19:06:15.279,e8:da:bf:c6:3e:4f, 2015-01-01 00:24:30.725, -0.142, -0.003, -0.915, 0.793, -1.404, 5.066, , , , , , , 179.659, -0.84, -101.646, -78.300, 13.100, -69.807, 20.66, 0.00729, 0.63187, -0.77499, -0.00021, 407, 100,
 19:06:15.295,e8:da:bf:c6:3e:4f, 2015-01-01 00:24:30.725, -0.809, 0.042, -0.96, 0.977, -6.226, -0.061, , , , , , , 179.67, -0.797, -101.673, -78.300, 13.100, -69.807, 20.66, 0.00729, 0.63187, -0.77499, -0.00021, 407, 100,
 19:06:15.295,e8:da:bf:c6:3e:4f, 2015-01-01 00:24:30.725, -2.068, 0.049, -1.111, 1.099, -6.653, 7.812, , , , , , , 179.687, -0.731, -101.689, -78.300, 13.100, -69.807, 20.66, 0.00729, 0.63187, -0.77499, -0.00021, 407, 100,
 19:06:15.295,e8:da:bf:c6:3e:4f, 2015-01-01 00:24:30.725, -2.892, -0.047, -1.167, -3.113, -6.348, 49.622, , , , , , , 179.676, -0.665, -101.975, -78.300, 13.100, -69.807, 20.66, 0.00729, 0.63187, -0.77499, -0.00021, 407, 100,
 19:06:15.295,e8:da:bf:c6:3e:4f, 2015-01-01 00:24:30.725, -3.063, -0.201, -0.88, -0.671, -1.16, 93.933, , , , , , , 179.659, -0.632, -102.706, -78.300, 13.100, -69.807, 20.66, 0.00729, 0.63187, -0.77499, -0.00021, 407, 100,
 19:06:15.405,e8:da:bf:c6:3e:4f, 2015-01-01 00:24:30.725, -2.441, -0.337, -0.687, 2.197, 5.371, 143.616, , , , , , , 179.676, -0.665, -103.931, -78.300, 13.100, -69.807, 20.66, 0.00717, 0.58456, -0.81125, -6E-05, 407, 100,
 19:06:15.406,e8:da:bf:c6:3e:4f, 2015-01-01 00:24:31.085, -1.433, -0.394, -0.872, 0.793, 8.118, 176.147, , , , , , , 179.714, -0.753, -105.557, -78.300, 13.100, -69.807, 20.66, 0.00717, 0.58456, -0.81125, -6E-05, 407, 100,
 19:06:15.406,e8:da:bf:c6:3e:4f, 2015-01-01 00:24:31.085, -0.392, -0.413, -1.075, -2.38, 4.7, 196.533, , , , , , , 179.72, -0.818, -107.452, -78.300, 13.100, -69.807, 20.66, 0.00717, 0.58456, -0.81125, -6E-05, 407, 100,
 19:06:15.406,e8:da:bf:c6:3e:4f, 2015-01-01 00:24:31.085, 0.144, -0.407, -1.011, -1.099, 1.77, 196.96, , , , , , , 179.725, -0.879, -109.429, -78.300, 13.100, -69.807, 20.66, 0.00717, 0.58456, -0.81125, -6E-05, 407, 100,
 19:06:15.422,e8:da:bf:c6:3e:4f, 2015-01-01 00:24:31.085, 0.307, -0.418, -0.993, -0.427, 1.221, 193.787, , , , , , , 179.742, -0.89, -111.385, -78.300, 13.100, -69.807, 20.66, 0.00717, 0.58456, -0.81125, -6E-05, 407, 100,
 19:06:15.422,e8:da:bf:c6:3e:4f, 2015-01-01 00:24:31.085, 0.495, -0.42, -1.067, -1.465, -0.061, 191.284, , , , , , , 179.753, -0.912, -113.313, -78.300, 13.100, -69.807, 20.66, 0.00717, 0.58456, -0.81125, -6E-05, 407, 100,
 19:06:15.422,e8:da:bf:c6:3e:4f, 2015-01-01 00:24:31.085, 0.47, -0.396, -1.075, -2.686, -1.953, 178.711, , , , , , , 179.758, -0.901, -115.164, -78.300, 13.100, -69.807, 20.66, 0.00717, 0.58456, -0.81125, -6E-05, 407, 100,
 19:06:15.422,e8:da:bf:c6:3e:4f, 2015-01-01 00:24:31.085, 0.347, -0.375, -0.943, -1.709, -1.526, 169.8, , , , , , , 179.753, -0.901, -116.895, -78.300, 13.100, -69.807, 20.66, 0.00717, 0.58456, -0.81125, -6E-05, 407, 100,
 19:06:15.422,e8:da:bf:c6:3e:4f, 2015-01-01 00:24:31.085, 0.255, -0.357, -0.85, 0.488, -0.793, 168.396, , , , , , , 179.769, -0.89, -118.586, -78.300, 13.100, -69.807, 20.66, 0.00717, 0.58456, -0.81125, -6E-05, 407, 100,
 19:06:15.422,e8:da:bf:c6:3e:4f, 2015-01-01 00:24:31.085, 0.104, -0.333, -0.905, 0.977, -2.197, 162.231, , , , , , , 179.802, -0.89, -120.24, -78.300, 13.100, -69.807, 20.66, 0.00717, 0.58456, -0.81125, -6E-05, 407, 100,
 19:06:15.428,e8:da:bf:c6:3e:4f, 2015-01-01 00:24:31.085, 0.051, -0.321, -1.044, -0.183, -0.916, 162.842, , , , , , , 179.824, -0.873, -121.86, -78.300, 13.100, -69.807, 20.66, 0.00717, 0.58456, -0.81125, -6E-05, 407, 100,
 19:06:15.428,e8:da:bf:c6:3e:4f, 2015-01-01 00:24:31.085, 0.058, -0.323, -1.107, -1.953, -0.732, 163.696, , , , , , , 179.835, -0.873, -123.503, -78.300, 13.100, -69.807, 20.66, 0.00717, 0.58456, -0.81125, -6E-05, 407, 100,
 19:06:15.444,e8:da:bf:c6:3e:4f, 2015-01-01 00:24:31.085, 0.024, -0.333, -1.013, -1.648, -2.38, 160.4, , , , , , , 179.835, -0.862, -125.123, -78.300, 13.100, -69.807, 20.66, 0.00717, 0.58456, -0.81125, -6E-05, 407, 100,
 19:06:15.444,e8:da:bf:c6:3e:4f, 2015-01-01 00:24:31.085, -0.108, -0.34, -0.881, 0.244, -3.174, 157.043, , , , , , , 179.846, -0.84, -126.711, -78.300, 13.100, -69.807, 20.66, 0.00717, 0.58456, -0.81125, -6E-05, 407, 100,
 19:06:15.444,e8:da:bf:c6:3e:4f, 2015-01-01 00:24:31.085, -0.55, -0.33, -0.947, 1.282, -1.831, 153.503, , , , , , , 179.874, -0.813, -128.254, -78.300, 13.100, -69.807, 20.66, 0.00717, 0.58456, -0.81125, -6E-05, 407, 100,
 19:06:15.444,e8:da:bf:c6:3e:4f, 2015-01-01 00:24:31.085, -0.468, -0.351, -1.086, -1.221, -1.16, 176.331, , , , , , , 179.896, -0.813, -129.908, -78.300, 13.100, -69.807, 20.66, 0.00717, 0.58456, -0.81125, -6E-05, 407, 100,
 19:06:15.574,e8:da:bf:c6:3e:4f, 2015-01-01 00:24:31.085, -0.431, -0.38, -1.034, -2.686, -0.916, 180.908, , , , , , , 179.885, -0.797, -131.726, -78.300, 13.100, -69.807, 20.66, 0.00717, 0.58456, -0.81125, -6E-05, 407, 100,
 19:06:15.574,e8:da:bf:c6:3e:4f, 2015-01-01 00:24:31.085, -0.303, -0.43, -0.878, 0.122, 0.916, 186.218, , , , , , , 179.896, -0.807, -133.544, -78.300, 13.100, -69.807, 20.66, 0.00717, 0.58456, -0.81125, -6E-05, 407, 100,
 19:06:15.574,e8:da:bf:c6:3e:4f, 2015-01-01 00:24:31.085, -0.021, -0.466, -0.857, 0.732, 0.671, 195.74, , , , , , , 179.923, -0.818, -135.478, -78.300, 13.100, -69.807, 20.66, 0.00717, 0.58456, -0.81125, -6E-05, 407, 100,
 19:06:15.574,e8:da:bf:c6:3e:4f, 2015-01-01 00:24:31.085, 0.103, -0.459, -1.039, -0.122, 0.183, 191.406, , , , , , , 179.951, -0.835, -137.411, -78.300, 13.100, -69.807, 20.66, 0.00717, 0.58456, -0.81125, -6E-05, 407, 100,
 19:06:15.621,e8:da:bf:c6:3e:4f, 2015-01-01 00:24:31.085, 0.115, -0.443, -1.173, -2.625, -0.549, 189.27, , , , , , , 179.956, -0.829, -139.318, -78.300, 13.100, -69.807, 20.66, 0.00717, 0.58456, -0.81125, -6E-05, 407, 100,
 19:06:15.621,e8:da:bf:c6:3e:4f, 2015-01-01 00:24:31.085, 0.079, -0.44, -1.06, -3.052, -0.61, 187.805, , , , , , , 179.945, -0.829, -141.202, -78.300, 13.100, -69.807, 20.66, 0.00717, 0.58456, -0.81125, -6E-05, 407, 100,
 19:06:15.621,e8:da:bf:c6:3e:4f, 2015-01-01 00:24:31.085, 0.073, -0.447, -0.829, -0.122, -0.793, 187.195, , , , , , , 179.951, -0.818, -143.075, -78.300, 13.100, -69.807, 20.66, 0.00717, 0.58456, -0.81125, -6E-05, 407, 100,
 19:06:15.622,e8:da:bf:c6:3e:4f, 2015-01-01 00:24:31.085, 0.085, -0.437, -0.838, 1.282, -1.221, 186.829, , , , , , , 179.984, -0.818, -144.948, -78.300, 13.100, -69.807, 20.66, 0.00717, 0.58456, -0.81125, -6E-05, 407, 100,
 19:06:15.622,e8:da:bf:c6:3e:4f, 2015-01-01 00:24:31.085, 0.083, -0.418, -1.028, -0.305, -1.343, 185.669, , , , , , , -179.995, -0.802, -146.816, -78.300, 13.100, -69.807, 20.66, 0.00717, 0.58456, -0.81125, -6E-05, 407, 100,
 19:06:15.622,e8:da:bf:c6:3e:4f, 2015-01-01 00:24:31.085, 0.069, -0.42, -1.122, -2.075, -1.099, 184.875, , , , , , , -179.989, -0.797, -148.667, -78.300, 13.100, -69.807, 20.66, 0.00717, 0.58456, -0.81125, -6E-05, 407, 100,
 19:06:15.622,e8:da:bf:c6:3e:4f, 2015-01-01 00:24:31.085, 0.067, -0.437, -1.023, -1.953, -1.16, 184.692, , , , , , , -179.989, -0.78, -150.518, -78.300, 13.100, -69.807, 20.66, 0.00717, 0.58456, -0.81125, -6E-05, 407, 100,
 19:06:15.622,e8:da:bf:c6:3e:4f, 2015-01-01 00:24:31.085, 0.082, -0.439, -0.888, -0.061, -1.099, 183.96, , , , , , , -179.978, -0.775, -152.364, -78.300, 13.100, -69.807, 20.66, 0.00717, 0.58456, -0.81125, -6E-05, 407, 100,
 19:06:15.638,e8:da:bf:c6:3e:4f, 2015-01-01 00:24:31.085, 0.081, -0.412, -0.913, 0.305, -0.244, 183.105, , , , , , , -179.956, -0.758, -154.199, -78.300, 13.100, -69.807, 20.66, 0.00717, 0.58456, -0.81125, -6E-05, 407, 100,
 19:06:15.638,e8:da:bf:c6:3e:4f, 2015-01-01 00:24:31.085, 0.347, -0.39, -0.998, -0.61, 1.953, 187.378, , , , , , , -179.94, -0.775, -156.05, -78.300, 13.100, -69.807, 20.66, 0.00717, 0.58456, -0.81125, -6E-05, 407, 100,
 19:06:15.638,e8:da:bf:c6:3e:4f, 2015-01-01 00:24:31.085, 0.894, -0.386, -1.001, 0, -1.892, 188.354, , , , , , , -179.923, -0.775, -157.956, -78.300, 13.100, -69.807, 20.66, 0.00717, 0.58456, -0.81125, -6E-05, 407, 100,
 19:06:15.638,e8:da:bf:c6:3e:4f, 2015-01-01 00:24:31.085, 1.095, -0.346, -0.992, -0.305, -0.732, 162.842, , , , , , , -179.907, -0.758, -159.697, -78.300, 13.100, -69.807, 20.66, 0.00717, 0.58456, -0.81125, -6E-05, 407, 100,
 19:06:15.654,e8:da:bf:c6:3e:4f, 2015-01-01 00:24:31.085, 2.049, -0.312, -1.055, -1.282, 2.747, 160.95, , , , , , , -179.896, -0.775, -161.307, -78.300, 13.100, -69.807, 20.66, 0.00717, 0.58456, -0.81125, -6E-05, 407, 100,
 19:06:15.654,e8:da:bf:c6:3e:4f, 2015-01-01 00:24:31.085, 2.754, -0.215, -1.028, -0.488, -0.977, 126.16, , , , , , , -179.89, -0.769, -162.779, -78.300, 13.100, -69.807, 20.66, 0.00717, 0.58456, -0.81125, -6E-05, 407, 100,
 19:06:15.654,e8:da:bf:c6:3e:4f, 2015-01-01 00:24:31.085, 3.065, -0.1, -0.944, -0.61, 0.488, 79.895, , , , , , , -179.89, -0.769, -163.757, -78.300, 13.100, -69.807, 20.66, 0.00717, 0.58456, -0.81125, -6E-05, 407, 100,
 19:06:15.654,e8:da:bf:c6:3e:4f, 2015-01-01 00:24:31.085, 2.82, -0.005, -0.907, 0.488, -3.723, 37.292, , , , , , , -179.879, -0.753, -164.35, -78.300, 13.100, -69.807, 20.66, 0.00717, 0.58456, -0.81125, -6E-05, 407, 100,
 19:06:15.686,e8:da:bf:c6:3e:4f, 2015-01-01 00:24:31.085, 2.047, 0.041, -0.945, 0, -4.028, -7.751, , , , , , , -179.874, -0.714, -164.449, -78.300, 13.100, -69.807, 20.66, 0.00424, 0.14084, -0.98996, -3E-05, 407, 100,
 19:06:15.686,e8:da:bf:c6:3e:4f, 2015-01-01 00:24:31.085, 1.061, 0.033, -0.967, 0.061, -2.808, -31.189, , , , , , , -179.879, -0.67, -164.246, -78.300, 13.100, -69.807, 20.66, 0.00424, 0.14084, -0.98996, -3E-05, 407, 100,
 19:06:15.686,e8:da:bf:c6:3e:4f, 2015-01-01 00:24:31.085, 0.228, 0.02, -0.896, 2.258, -0.488, -51.758, , , , , , , -179.868, -0.67, -163.801, -78.300, 13.100, -69.807, 20.66, 0.00424, 0.14084, -0.98996, -3E-05, 407, 100,
 19:06:15.686,e8:da:bf:c6:3e:4f, 2015-01-01 00:24:31.085, -0.236, 0.014, -1.039, -0.183, 0, -52.307, , , , , , , -179.863, -0.665, -163.268, -78.300, 13.100, -69.807, 20.66, 0.00424, 0.14084, -0.98996, -3E-05, 407, 100,
 19:06:15.834,e8:da:bf:c6:3e:4f, 2015-01-01 00:24:31.440, -0.41, -0.006, -1.168, -2.991, -1.343, -44.189, , , , , , , -179.885, -0.665, -162.79, -78.300, 13.100, -69.807, 20.66, 0.00424, 0.14084, -0.98996, -3E-05, 407, 100,
 19:06:15.834,e8:da:bf:c6:3e:4f, 2015-01-01 00:24:31.440, -0.623, -0.031, -1.083, -2.93, -3.967, -37.598, , , , , , , -179.918, -0.626, -162.389, -78.300, 13.100, -69.807, 20.66, 0.00424, 0.14084, -0.98996, -3E-05, 407, 100,
 19:06:15.834,e8:da:bf:c6:3e:4f, 2015-01-01 00:24:31.440, -0.875, -0.054, -0.903, -0.549, -2.075, -27.71, , , , , , , -179.934, -0.599, -162.059, -78.300, 13.100, -69.807, 20.66, 0.00424, 0.14084, -0.98996, -3E-05, 407, 100,
 19:06:15.834,e8:da:bf:c6:3e:4f, 2015-01-01 00:24:31.440, -0.979, -0.047, -0.827, 1.038, -0.793, -11.047, , , , , , , -179.934, -0.588, -161.878, -78.300, 13.100, -69.807, 20.66, 0.00424, 0.14084, -0.98996, -3E-05, 407, 100,
 19:06:15.850,e8:da:bf:c6:3e:4f, 2015-01-01 00:24:31.440, -0.934, -0.012, -0.925, 1.16, 0.732, 3.54, , , , , , , -179.923, -0.588, -161.84, -78.300, 13.100, -69.807, 20.66, 0.00424, 0.14084, -0.98996, -3E-05, 407, 100,
 19:06:15.850,e8:da:bf:c6:3e:4f, 2015-01-01 00:24:31.440, -0.645, 0.001, -1.001, 0.244, 2.319, 17.456, , , , , , , -179.912, -0.604, -161.955, -78.300, 13.100, -69.807, 20.66, 0.00424, 0.14084, -0.98996, -3E-05, 407, 100,
 19:06:15.850,e8:da:bf:c6:3e:4f, 2015-01-01 00:24:31.440, -0.361, -0.016, -0.962, 0.732, 4.272, 26.062, , , , , , , -179.907, -0.637, -162.186, -78.300, 13.100, -69.807, 20.66, 0.00424, 0.14084, -0.98996, -3E-05, 407, 100,
 19:06:15.850,e8:da:bf:c6:3e:4f, 2015-01-01 00:24:31.440, -0.092, -0.035, -0.957, 1.221, 4.456, 32.349, , , , , , , -179.89, -0.687, -162.488, -78.300, 13.100, -69.807, 20.66, 0.00424, 0.14084, -0.98996, -3E-05, 407, 100,
 19:06:15.850,e8:da:bf:c6:3e:4f, 2015-01-01 00:24:31.440, 0.062, -0.022, -1.094, -0.427, 0.427, 33.691, , , , , , , -179.885, -0.709, -162.823, -78.300, 13.100, -69.807, 20.66, 0.00424, 0.14084, -0.98996, -3E-05, 407, 100,
 19:06:15.850,e8:da:bf:c6:3e:4f, 2015-01-01 00:24:31.440, 0.124, 0.002, -1.111, -1.953, -0.244, 32.41, , , , , , , -179.896, -0.714, -163.152, -78.300, 13.100, -69.807, 20.66, 0.00424, 0.14084, -0.98996, -3E-05, 407, 100,
 19:06:15.850,e8:da:bf:c6:3e:4f, 2015-01-01 00:24:31.440, 0.206, 0.012, -0.931, -1.099, 1.892, 31.494, , , , , , , -179.912, -0.72, -163.477, -78.300, 13.100, -69.807, 20.66, 0.00424, 0.14084, -0.98996, -3E-05, 407, 100,
 19:06:15.850,e8:da:bf:c6:3e:4f, 2015-01-01 00:24:31.440, 0.544, -0.002, -0.753, 2.502, 1.526, 32.715, , , , , , , -179.901, -0.742, -163.801, -78.300, 13.100, -69.807, 20.66, 0.00424, 0.14084, -0.98996, -3E-05, 407, 100,
 19:06:15.866,e8:da:bf:c6:3e:4f, 2015-01-01 00:24:31.440, 0.866, 0.007, -0.89, 3.662, -0.732, 22.705, , , , , , , -179.857, -0.742, -164.086, -78.300, 13.100, -69.807, 20.66, 0.00424, 0.14084, -0.98996, -3E-05, 407, 100,
 19:06:15.866,e8:da:bf:c6:3e:4f, 2015-01-01 00:24:31.440, 0.857, 0.021, -1.189, -0.854, 0.244, 2.136, , , , , , , -179.846, -0.742, -164.202, -78.300, 13.100, -69.807, 20.66, 0.00424, 0.14084, -0.98996, -3E-05, 407, 100,
 19:06:15.866,e8:da:bf:c6:3e:4f, 2015-01-01 00:24:31.440, 0.746, 0.007, -1.167, -2.441, -1.282, -7.812, , , , , , , -179.863, -0.736, -164.174, -78.300, 13.100, -69.807, 20.66, 0.00424, 0.14084, -0.98996, -3E-05, 407, 100,
 19:06:15.866,e8:da:bf:c6:3e:4f, 2015-01-01 00:24:31.440, 0.445, -0.001, -0.923, -0.488, -1.648, -21.362, , , , , , , -179.885, -0.72, -164.02, -78.300, 13.100, -69.807, 20.66, 0.00424, 0.14084, -0.98996, -3E-05, 407, 100,
 19:06:15.898,e8:da:bf:c6:3e:4f, 2015-01-01 00:24:31.440, 0.152, 0.005, -0.845, 0.793, -2.136, -27.344, , , , , , , -179.879, -0.703, -163.768, -78.300, 13.100, -69.807, 20.66, 0.00424, 0.14084, -0.98996, -3E-05, 407, 100,
 19:06:15.898,e8:da:bf:c6:3e:4f, 2015-01-01 00:24:31.440, -0.061, 0.025, -0.981, -0.427, -0.61, -29.907, , , , , , , -179.879, -0.687, -163.477, -78.300, 13.100, -69.807, 20.66, 0.00424, 0.14084, -0.98996, -3E-05, 407, 100,
 19:06:15.898,e8:da:bf:c6:3e:4f, 2015-01-01 00:24:31.440, -0.133, 0.012, -1.063, -1.465, -0.61, -27.222, , , , , , , -179.896, -0.687, -163.191, -78.300, 13.100, -69.807, 20.66, 0.00424, 0.14084, -0.98996, -3E-05, 407, 100,
 19:06:15.898,e8:da:bf:c6:3e:4f, 2015-01-01 00:24:31.440, -0.145, -0.018, -0.993, -1.038, -0.244, -23.499, , , , , , , -179.912, -0.681, -162.944, -78.300, 13.100, -69.807, 20.66, 0.00424, 0.14084, -0.98996, -3E-05, 407, 100,
 19:06:15.930,e8:da:bf:c6:3e:4f, 2015-01-01 00:24:31.440, -0.182, -0.041, -0.892, 0.977, -1.099, -20.691, , , , , , , -179.912, -0.676, -162.724, -78.300, 13.100, -69.807, 20.66, 0.00424, 0.14084, -0.98996, -3E-05, 407, 100,
 19:06:15.930,e8:da:bf:c6:3e:4f, 2015-01-01 00:24:31.440, -0.325, -0.016, -0.975, 0.671, -1.282, -19.287, , , , , , , -179.901, -0.659, -162.526, -78.300, 13.100, -69.807, 20.66, 0.00424, 0.14084, -0.98996, -3E-05, 407, 100,
 19:06:15.930,e8:da:bf:c6:3e:4f, 2015-01-01 00:24:31.440, -0.423, 0.018, -1.079, -1.16, -1.16, -12.817, , , , , , , -179.907, -0.654, -162.367, -78.300, 13.100, -69.807, 20.66, 0.00424, 0.14084, -0.98996, -3E-05, 407, 100,
 19:06:15.930,e8:da:bf:c6:3e:4f, 2015-01-01 00:24:31.440, -0.484, 0.025, -1.017, -1.465, -0.732, -6.287, , , , , , , -179.923, -0.643, -162.279, -78.300, 13.100, -69.807, 20.66, 0.00424, 0.14084, -0.98996, -3E-05, 407, 100,
 19:06:16.088,e8:da:bf:c6:3e:4f, 2015-01-01 00:24:31.440, -0.444, -0.005, -0.865, 0.427, 0.122, 1.892, , , , , , , -179.929, -0.637, -162.257, -78.300, 13.100, -69.807, 20.66, 0.00424, 0.14084, -0.98996, -3E-05, 407, 100,
 19:06:16.088,e8:da:bf:c6:3e:4f, 2015-01-01 00:24:31.440, -0.357, -0.032, -0.842, 2.197, 1.465, 8.301, , , , , , , -179.912, -0.648, -162.318, -78.300, 13.100, -69.807, 20.66, 0.00424, 0.14084, -0.98996, -3E-05, 407, 100,
 19:06:16.088,e8:da:bf:c6:3e:4f, 2015-01-01 00:24:31.440, -0.193, -0.032, -0.994, 1.587, 2.563, 14.465, , , , , , , -179.885, -0.67, -162.438, -78.300, 13.100, -69.807, 20.66, 0.00424, 0.14084, -0.98996, -3E-05, 407, 100,
 19:06:16.089,e8:da:bf:c6:3e:4f, 2015-01-01 00:24:31.440, -0.036, -0.007, -1.146, -0.977, 2.319, 17.09, , , , , , , -179.885, -0.698, -162.603, -78.300, 13.100, -69.807, 20.66, 0.00424, 0.14084, -0.98996, -3E-05, 407, 100,
 19:06:16.089,e8:da:bf:c6:3e:4f, 2015-01-01 00:24:31.440, 0.039, 0.009, -1.1, -1.953, 0.793, 16.296, , , , , , , -179.901, -0.714, -162.773, -78.300, 13.100, -69.807, 20.66, 0.00424, 0.14084, -0.98996, -3E-05, 407, 100,
 19:06:16.089,e8:da:bf:c6:3e:4f, 2015-01-01 00:24:31.440, 0.032, 0.004, -0.908, -0.244, 0.366, 14.771, , , , , , , -179.912, -0.72, -162.927, -78.300, 13.100, -69.807, 20.66, 0.00424, 0.14084, -0.98996, -3E-05, 407, 100,
 19:06:16.089,e8:da:bf:c6:3e:4f, 2015-01-01 00:24:31.440, 0.037, -0.004, -0.861, 0.854, -0.061, 15.259, , , , , , , -179.901, -0.72, -163.081, -78.300, 13.100, -69.807, 20.66, 0.00424, 0.14084, -0.98996, -3E-05, 407, 100,
 19:06:16.089,e8:da:bf:c6:3e:4f, 2015-01-01 00:24:31.440, 0.04, -0.001, -0.946, 0.854, 0.305, 15.93, , , , , , , -179.89, -0.72, -163.235, -78.300, 13.100, -69.807, 20.66, 0.00424, 0.14084, -0.98996, -3E-05, 407, 100,
 19:06:16.105,e8:da:bf:c6:3e:4f, 2015-01-01 00:24:31.440, 0.115, 0.005, -1.034, -0.061, 0.854, 18.86, , , , , , , -179.885, -0.731, -163.411, -78.300, 13.100, -69.807, 20.66, 0.00516, 0.14194, -0.98981, -3E-05, 407, 100,
 19:06:16.105,e8:da:bf:c6:3e:4f, 2015-01-01 00:24:31.440, 0.408, 0.004, -1.017, 0, 0.183, 21.667, , , , , , , -179.885, -0.736, -163.625, -78.300, 13.100, -69.807, 20.66, 0.00516, 0.14194, -0.98981, -3E-05, 407, 100,
 19:06:16.105,e8:da:bf:c6:3e:4f, 2015-01-01 00:24:31.440, 0.47, 0.016, -0.964, 0.61, 0.854, 8.179, , , , , , , -179.879, -0.736, -163.779, -78.300, 13.100, -69.807, 20.66, 0.00516, 0.14194, -0.98981, -3E-05, 407, 100,
 19:06:16.105,e8:da:bf:c6:3e:4f, 2015-01-01 00:24:31.440, 1.001, 0.018, -0.971, 0.549, 2.38, 5.981, , , , , , , -179.874, -0.769, -163.828, -78.300, 13.100, -69.807, 20.66, 0.00516, 0.14194, -0.98981, -3E-05, 407, 100,
 19:06:16.105,e8:da:bf:c6:3e:4f, 2015-01-01 00:24:31.440, 2.396, 0.032, -1.078, 0, -1.892, 2.869, , , , , , , -179.868, -0.764, -163.905, -78.300, 13.100, -69.807, 20.66, 0.00516, 0.14194, -0.98981, -3E-05, 407, 100,
 19:06:16.105,e8:da:bf:c6:3e:4f, 2015-01-01 00:24:31.440, 3.07, 0.045, -1.078, -2.502, 3.296, -50.659, , , , , , , -179.885, -0.775, -163.674, -78.300, 13.100, -69.807, 20.66, 0.00516, 0.14194, -0.98981, -3E-05, 407, 100,
 19:06:16.105,e8:da:bf:c6:3e:4f, 2015-01-01 00:24:31.440, 3.202, -0.029, -0.868, 0.366, -2.136, -93.506, , , , , , , -179.907, -0.791, -162.938, -78.300, 13.100, -69.807, 20.66, 0.00516, 0.14194, -0.98981, -3E-05, 407, 100,
 19:06:16.105,e8:da:bf:c6:3e:4f, 2015-01-01 00:24:31.440, 2.365, -0.137, -0.792, 2.441, -5.127, -148.315, , , , , , , -179.901, -0.742, -161.697, -78.300, 13.100, -69.807, 20.66, 0.00516, 0.14194, -0.98981, -3E-05, 407, 100,
 19:06:16.138,e8:da:bf:c6:3e:4f, 2015-01-01 00:24:31.440, 1.35, -0.268, -0.955, 1.587, -3.784, -175.842, , , , , , , -179.896, -0.703, -160.043, -78.300, 13.100, -69.807, 20.66, 0.00516, 0.14194, -0.98981, -3E-05, 407, 100,
 19:06:16.138,e8:da:bf:c6:3e:4f, 2015-01-01 00:24:31.440, 0.437, -0.356, -1.053, 1.099, 2.258, -193.481, , , , , , , -179.896, -0.703, -158.181, -78.300, 13.100, -69.807, 20.66, 0.00516, 0.14194, -0.98981, -3E-05, 407, 100,
 19:06:16.138,e8:da:bf:c6:3e:4f, 2015-01-01 00:24:31.440, -0.134, -0.399, -1.074, -0.61, 0.549, -200.256, , , , , , , -179.912, -0.714, -156.198, -78.300, 13.100, -69.807, 20.66, 0.00516, 0.14194, -0.98981, -3E-05, 407, 100,
 19:06:16.138,e8:da:bf:c6:3e:4f, 2015-01-01 00:24:31.440, -0.342, -0.429, -1.014, -1.282, 2.38, -193.787, , , , , , , -179.945, -0.731, -154.226, -78.300, 13.100, -69.807, 20.66, 0.00516, 0.14194, -0.98981, -3E-05, 407, 100,
 19:06:16.186,e8:da:bf:c6:3e:4f, 2015-01-01 00:24:31.440, -0.191, -0.441, -0.936, 0.549, -0.122, -180.725, , , , , , , -179.967, -0.753, -152.364, -78.300, 13.100, -69.807, 20.66, 0.00516, 0.14194, -0.98981, -3E-05, 407, 100,
 19:06:16.186,e8:da:bf:c6:3e:4f, 2015-01-01 00:24:31.860, -0.198, -0.422, -0.922, 1.099, 1.038, -181.03, , , , , , , -179.973, -0.747, -150.562, -78.300, 13.100, -69.807, 20.66, 0.00516, 0.14194, -0.98981, -3E-05, 407, 100,
 19:06:16.186,e8:da:bf:c6:3e:4f, 2015-01-01 00:24:31.860, -0.188, -0.401, -0.98, 1.099, 0.916, -176.27, , , , , , , -179.978, -0.764, -148.777, -78.300, 13.100, -69.807, 20.66, 0.00516, 0.14194, -0.98981, -3E-05, 407, 100,
 19:06:16.186,e8:da:bf:c6:3e:4f, 2015-01-01 00:24:31.860, -0.16, -0.377, -1.042, 0.183, 1.709, -173.096, , , , , , , -179.989, -0.769, -147.036, -78.300, 13.100, -69.807, 20.66, 0.00516, 0.14194, -0.98981, -3E-05, 407, 100,
 19:06:16.305,e8:da:bf:c6:3e:4f, 2015-01-01 00:24:31.860, -0.089, -0.369, -1.018, -0.122, 2.136, -170.166, , , , , , , 179.995, -0.797, -145.322, -78.300, 13.100, -69.807, 20.66, 0.00516, 0.14194, -0.98981, -3E-05, 407, 100,
 19:06:16.305,e8:da:bf:c6:3e:4f, 2015-01-01 00:24:31.860, -0.059, -0.371, -0.951, 0.793, 0.977, -169.312, , , , , , , 179.978, -0.807, -143.63, -78.300, 13.100, -69.807, 20.66, 0.00516, 0.14194, -0.98981, -3E-05, 407, 100,
 19:06:16.305,e8:da:bf:c6:3e:4f, 2015-01-01 00:24:31.860, -0.056, -0.368, -0.954, 1.038, 0.854, -168.579, , , , , , , 179.973, -0.818, -141.938, -78.300, 13.100, -69.807, 20.66, 0.00516, 0.14194, -0.98981, -3E-05, 407, 100,
 19:06:16.305,e8:da:bf:c6:3e:4f, 2015-01-01 00:24:31.860, -0.024, -0.356, -0.999, 0.732, 0.977, -166.443, , , , , , , 179.962, -0.824, -140.268, -78.300, 13.100, -69.807, 20.66, 0.00516, 0.14194, -0.98981, -3E-05, 407, 100,
 19:06:16.321,e8:da:bf:c6:3e:4f, 2015-01-01 00:24:31.860, -0.018, -0.344, -1.016, 0.305, 2.502, -165.588, , , , , , , 179.945, -0.846, -138.604, -78.300, 13.100, -69.807, 20.66, 0.00516, 0.14194, -0.98981, -3E-05, 407, 100,
 19:06:16.321,e8:da:bf:c6:3e:4f, 2015-01-01 00:24:31.860, 0.185, -0.34, -1.006, 0.061, 0.488, -158.508, , , , , , , 179.929, -0.857, -136.983, -78.300, 13.100, -69.807, 20.66, 0.00516, 0.14194, -0.98981, -3E-05, 407, 100,
 19:06:16.321,e8:da:bf:c6:3e:4f, 2015-01-01 00:24:31.860, 0.578, -0.34, -0.951, 1.16, -0.488, -157.471, , , , , , , 179.918, -0.862, -135.423, -78.300, 13.100, -69.807, 20.66, 0.00516, 0.14194, -0.98981, -3E-05, 407, 100,
 19:06:16.321,e8:da:bf:c6:3e:4f, 2015-01-01 00:24:31.860, 0.459, -0.348, -0.932, 1.16, 2.136, -179.871, , , , , , , 179.912, -0.857, -133.731, -78.300, 13.100, -69.807, 20.66, 0.00516, 0.14194, -0.98981, -3E-05, 407, 100,
 19:06:16.321,e8:da:bf:c6:3e:4f, 2015-01-01 00:24:31.860, 0.352, -0.388, -0.982, 0.671, 1.77, -184.448, , , , , , , 179.901, -0.879, -131.885, -78.300, 13.100, -69.807, 20.66, 0.00516, 0.14194, -0.98981, -3E-05, 407, 100,
 19:06:16.321,e8:da:bf:c6:3e:4f, 2015-01-01 00:24:31.860, 0.273, -0.414, -1.012, 0.671, 0.183, -187.012, , , , , , , 179.885, -0.879, -130.045, -78.300, 13.100, -69.807, 20.66, 0.00516, 0.14194, -0.98981, -3E-05, 407, 100,
 19:06:16.322,e8:da:bf:c6:3e:4f, 2015-01-01 00:24:31.860, 0.083, -0.435, -0.978, 0.671, 0.366, -195.251, , , , , , , 179.868, -0.879, -128.123, -78.300, 13.100, -69.807, 20.66, 0.00516, 0.14194, -0.98981, -3E-05, 407, 100,
 19:06:16.322,e8:da:bf:c6:3e:4f, 2015-01-01 00:24:31.860, -0.058, -0.448, -0.965, 0.854, 0.305, -194.153, , , , , , , 179.852, -0.873, -126.172, -78.300, 13.100, -69.807, 20.66, 0.00516, 0.14194, -0.98981, -3E-05, 407, 100,
 19:06:16.338,e8:da:bf:c6:3e:4f, 2015-01-01 00:24:31.860, -0.104, -0.449, -0.985, 0.916, 0.854, -190.735, , , , , , , 179.841, -0.879, -124.25, -78.300, 13.100, -69.807, 20.66, 0.00516, 0.14194, -0.98981, -3E-05, 407, 100,
 19:06:16.338,e8:da:bf:c6:3e:4f, 2015-01-01 00:24:31.860, -0.077, -0.444, -1.013, 0.488, 0.793, -187.622, , , , , , , 179.824, -0.879, -122.36, -78.300, 13.100, -69.807, 20.66, 0.00516, 0.14194, -0.98981, -3E-05, 407, 100,
 19:06:16.338,e8:da:bf:c6:3e:4f, 2015-01-01 00:24:31.860, -0.068, -0.442, -0.996, 0.366, 0.854, -186.768, , , , , , , 179.808, -0.884, -120.493, -78.300, 13.100, -69.807, 20.66, 0.00516, 0.14194, -0.98981, -3E-05, 407, 100,
 19:06:16.338,e8:da:bf:c6:3e:4f, 2015-01-01 00:24:31.860, -0.068, -0.436, -0.966, 0.916, 0.916, -185.547, , , , , , , 179.791, -0.879, -118.63, -78.300, 13.100, -69.807, 20.66, 0.00516, 0.14194, -0.98981, -3E-05, 407, 100,
 19:06:16.370,e8:da:bf:c6:3e:4f, 2015-01-01 00:24:31.860, -0.063, -0.422, -0.981, 0.854, 1.038, -183.899, , , , , , , 179.78, -0.884, -116.785, -78.300, 13.100, -69.807, 20.66, 0.00516, 0.14194, -0.98981, -3E-05, 407, 100,
 19:06:16.370,e8:da:bf:c6:3e:4f, 2015-01-01 00:24:31.860, -0.053, -0.412, -1.005, 0.305, 1.099, -182.739, , , , , , , 179.764, -0.884, -114.955, -78.300, 13.100, -69.807, 20.66, 0.00516, 0.14194, -0.98981, -3E-05, 407, 100,
 19:06:16.370,e8:da:bf:c6:3e:4f, 2015-01-01 00:24:31.860, -0.055, -0.41, -0.983, 0.427, 0.916, -182.129, , , , , , , 179.742, -0.89, -113.132, -78.300, 13.100, -69.807, 20.66, 0.00516, 0.14194, -0.98981, -3E-05, 407, 100,
 19:06:16.370,e8:da:bf:c6:3e:4f, 2015-01-01 00:24:31.860, -0.066, -0.409, -0.956, 0.854, 0.732, -181.335, , , , , , , 179.731, -0.884, -111.319, -78.300, 13.100, -69.807, 20.66, 0.00516, 0.14194, -0.98981, -3E-05, 407, 100,
 19:06:16.515,e8:da:bf:c6:3e:4f, 2015-01-01 00:24:31.860, -0.082, -0.401, -0.952, 1.16, 0.549, -180.054, , , , , , , 179.72, -0.884, -109.512, -78.300, 13.100, -69.807, 20.66, 0.00516, 0.14194, -0.98981, -3E-05, 407, 100,
 19:06:16.515,e8:da:bf:c6:3e:4f, 2015-01-01 00:24:31.860, -0.098, -0.388, -0.987, 1.221, 0.427, -179.321, , , , , , , 179.709, -0.879, -107.715, -78.300, 13.100, -69.807, 20.66, 0.00775, 0.62769, -0.77838, 0.0004, 407, 100,
 19:06:16.515,e8:da:bf:c6:3e:4f, 2015-01-01 00:24:31.860, -0.366, -0.375, -1.026, 0.366, -2.441, -181.519, , , , , , , 179.698, -0.862, -105.919, -78.300, 13.100, -69.807, 20.66, 0.00775, 0.62769, -0.77838, 0.0004, 407, 100,
 19:06:16.515,e8:da:bf:c6:3e:4f, 2015-01-01 00:24:31.860, -1.436, -0.364, -1.01, 2.136, -5.31, -186.401, , , , , , , 179.687, -0.802, -104.062, -78.300, 13.100, -69.807, 20.66, 0.00775, 0.62769, -0.77838, 0.0004, 407, 100,
 19:06:16.531,e8:da:bf:c6:3e:4f, 2015-01-01 00:24:31.860, -2.676, -0.347, -1.084, 0.122, -9.705, -158.386, , , , , , , 179.681, -0.72, -102.338, -78.300, 13.100, -69.807, 20.66, 0.00775, 0.62769, -0.77838, 0.0004, 407, 100,
 19:06:16.531,e8:da:bf:c6:3e:4f, 2015-01-01 00:24:31.860, -3.925, -0.305, -1.044, 1.465, -6.775, -120.85, , , , , , , 179.676, -0.621, -100.948, -78.300, 13.100, -69.807, 20.66, 0.00775, 0.62769, -0.77838, 0.0004, 407, 100,
 19:06:16.531,e8:da:bf:c6:3e:4f, 2015-01-01 00:24:31.860, -4.111, -0.261, -0.858, 1.465, 0.854, -51.27, , , , , , , 179.687, -0.593, -100.102, -78.300, 13.100, -69.807, 20.66, 0.00775, 0.62769, -0.77838, 0.0004, 407, 100,
 19:06:16.531,e8:da:bf:c6:3e:4f, 2015-01-01 00:24:31.860, -3.312, -0.205, -0.805, 1.404, 7.751, 10.437, , , , , , , 179.703, -0.637, -99.948, -78.300, 13.100, -69.807, 20.66, 0.00775, 0.62769, -0.77838, 0.0004, 407, 100,
 19:06:16.531,e8:da:bf:c6:3e:4f, 2015-01-01 00:24:31.860, -1.484, -0.146, -0.938, -3.906, 10.681, 60.974, , , , , , , 179.698, -0.742, -100.344, -78.300, 13.100, -69.807, 20.66, 0.00775, 0.62769, -0.77838, 0.0004, 407, 100,
 19:06:16.531,e8:da:bf:c6:3e:4f, 2015-01-01 00:24:31.860, -0.204, -0.073, -0.965, -2.197, 7.935, 77.454, , , , , , , 179.67, -0.84, -101.085, -78.300, 13.100, -69.807, 20.66, 0.00775, 0.62769, -0.77838, 0.0004, 407, 100,
 19:06:16.532,e8:da:bf:c6:3e:4f, 2015-01-01 00:24:31.860, 0.344, -0.013, -0.942, 0.671, 3.601, 75.073, , , , , , , 179.676, -0.89, -101.849, -78.300, 13.100, -69.807, 20.66, 0.00775, 0.62769, -0.77838, 0.0004, 407, 100,
 19:06:16.532,e8:da:bf:c6:3e:4f, 2015-01-01 00:24:31.860, 1.257, 0.001, -1.157, -1.099, 2.258, 80.505, , , , , , , 179.687, -0.934, -102.629, -78.300, 13.100, -69.807, 20.66, 0.00775, 0.62769, -0.77838, 0.0004, 407, 100,
 19:06:16.548,e8:da:bf:c6:3e:4f, 2015-01-01 00:24:31.860, 1.878, 0.026, -1.268, -4.15, -2.502, 54.443, , , , , , , 179.67, -0.923, -103.337, -78.300, 13.100, -69.807, 20.66, 0.00775, 0.62769, -0.77838, 0.0004, 407, 100,
 19:06:16.548,e8:da:bf:c6:3e:4f, 2015-01-01 00:24:32.245, 1.881, 0.02, -0.962, -3.662, 0.488, 14.221, , , , , , , 179.626, -0.923, -103.634, -78.300, 13.100, -69.807, 20.66, 0.00775, 0.62769, -0.77838, 0.0004, 407, 100,
 19:06:16.548,e8:da:bf:c6:3e:4f, 2015-01-01 00:24:32.245, 1.548, 0.014, -0.612, 2.502, -3.723, -8.728, , , , , , , 179.626, -0.906, -103.661, -78.300, 13.100, -69.807, 20.66, 0.00775, 0.62769, -0.77838, 0.0004, 407, 100,
 19:06:16.548,e8:da:bf:c6:3e:4f, 2015-01-01 00:24:32.245, 0.822, 0.037, -0.696, 5.432, -0.977, -35.339, , , , , , , 179.67, -0.868, -103.414, -78.300, 13.100, -69.807, 20.66, 0.00775, 0.62769, -0.77838, 0.0004, 407, 100,
 19:06:16.579,e8:da:bf:c6:3e:4f, 2015-01-01 00:24:32.245, 0.206, 0.052, -1.053, 2.197, -0.549, -42.297, , , , , , , 179.703, -0.868, -103.013, -78.300, 13.100, -69.807, 20.66, 0.00775, 0.62769, -0.77838, 0.0004, 407, 100,
 19:06:16.579,e8:da:bf:c6:3e:4f, 2015-01-01 00:24:32.245, -0.079, 0.023, -1.209, -1.465, -0.549, -45.654, , , , , , , 179.698, -0.846, -102.574, -78.300, 13.100, -69.807, 20.66, 0.00775, 0.62769, -0.77838, 0.0004, 407, 100,
 19:06:16.579,e8:da:bf:c6:3e:4f, 2015-01-01 00:24:32.245, -0.246, -0.027, -1.097, -1.526, 0.549, -44.434, , , , , , , 179.676, -0.846, -102.118, -78.300, 13.100, -69.807, 20.66, 0.00775, 0.62769, -0.77838, 0.0004, 407, 100,
 19:06:16.579,e8:da:bf:c6:3e:4f, 2015-01-01 00:24:32.245, -0.433, -0.045, -0.933, 0, -2.441, -39.307, , , , , , , 179.665, -0.829, -101.7, -78.300, 13.100, -69.807, 20.66, 0.00775, 0.62769, -0.77838, 0.0004, 407, 100,
 19:06:16.611,e8:da:bf:c6:3e:4f, 2015-01-01 00:24:32.245, -0.762, -0.027, -0.878, 1.831, -2.38, -32.532, , , , , , , 179.67, -0.797, -101.343, -78.300, 13.100, -69.807, 20.66, 0.00775, 0.62769, -0.77838, 0.0004, 407, 100,
 19:06:16.611,e8:da:bf:c6:3e:4f, 2015-01-01 00:24:32.245, -0.908, 0.001, -1.002, 0.732, -0.61, -17.09, , , , , , , 179.687, -0.78, -101.102, -78.300, 13.100, -69.807, 20.66, 0.00775, 0.62769, -0.77838, 0.0004, 407, 100,
 19:06:16.611,e8:da:bf:c6:3e:4f, 2015-01-01 00:24:32.245, -0.914, 0.011, -1.1, -1.709, 0.488, -3.967, , , , , , , 179.676, -0.78, -101.008, -78.300, 13.100, -69.807, 20.66, 0.00775, 0.62769, -0.77838, 0.0004, 407, 100,
 19:06:16.611,e8:da:bf:c6:3e:4f, 2015-01-01 00:24:32.245, -0.667, -0.016, -0.986, -1.221, 1.953, 10.986, , , , , , , 179.659, -0.797, -101.047, -78.300, 13.100, -69.807, 20.66, 0.00775, 0.62769, -0.77838, 0.0004, 407, 100,
 19:06:16.772,e8:da:bf:c6:3e:4f, 2015-01-01 00:24:32.245, -0.307, -0.034, -0.807, 1.404, 2.502, 19.958, , , , , , , 179.665, -0.818, -101.217, -78.300, 13.100, -69.807, 20.66, 0.00775, 0.62769, -0.77838, 0.0004, 407, 100,
 19:06:16.772,e8:da:bf:c6:3e:4f, 2015-01-01 00:24:32.245, -0.046, -0.014, -0.905, 1.892, 2.563, 24.536, , , , , , , 179.687, -0.846, -101.448, -78.300, 13.100, -69.807, 20.66, 0.00775, 0.62769, -0.77838, 0.0004, 407, 100,
 19:06:16.772,e8:da:bf:c6:3e:4f, 2015-01-01 00:24:32.245, 0.079, 0.016, -1.171, -1.282, 0.61, 25.635, , , , , , , 179.692, -0.862, -101.7, -78.300, 13.100, -69.807, 20.66, 0.00775, 0.62769, -0.77838, 0.0004, 407, 100,
 19:06:16.772,e8:da:bf:c6:3e:4f, 2015-01-01 00:24:32.245, 0.128, 0.018, -1.188, -3.357, 0.305, 24.475, , , , , , , 179.67, -0.868, -101.953, -78.300, 13.100, -69.807, 20.66, 0.00775, 0.62769, -0.77838, 0.0004, 407, 100,
 19:06:16.788,e8:da:bf:c6:3e:4f, 2015-01-01 00:24:32.245, 0.153, 0, -0.938, -1.465, 0.549, 21.667, , , , , , , 179.648, -0.873, -102.189, -78.300, 13.100, -69.807, 20.66, 0.00775, 0.62769, -0.77838, 0.0004, 407, 100,
 19:06:16.788,e8:da:bf:c6:3e:4f, 2015-01-01 00:24:32.245, 0.166, -0.006, -0.778, 1.282, 1.221, 18.005, , , , , , , 179.654, -0.884, -102.387, -78.300, 13.100, -69.807, 20.66, 0.00775, 0.62769, -0.77838, 0.0004, 407, 100,
 19:06:16.788,e8:da:bf:c6:3e:4f, 2015-01-01 00:24:32.245, 0.292, 0.01, -0.911, 1.465, 0.793, 18.555, , , , , , , 179.67, -0.895, -102.568, -78.300, 13.100, -69.807, 20.66, 0.00775, 0.62769, -0.77838, 0.0004, 407, 100,
 19:06:16.788,e8:da:bf:c6:3e:4f, 2015-01-01 00:24:32.245, 0.484, 0.032, -1.113, -0.977, -0.366, 15.93, , , , , , , 179.676, -0.901, -102.75, -78.300, 13.100, -69.807, 20.66, 0.00775, 0.62769, -0.77838, 0.0004, 407, 100,
 19:06:16.788,e8:da:bf:c6:3e:4f, 2015-01-01 00:24:32.245, 0.459, 0.033, -1.083, -1.953, -0.61, 3.784, , , , , , , 179.659, -0.895, -102.849, -78.300, 13.100, -69.807, 20.66, 0.00775, 0.62769, -0.77838, 0.0004, 407, 100,
 19:06:16.789,e8:da:bf:c6:3e:4f, 2015-01-01 00:24:32.245, 0.407, 0.014, -0.895, 0.061, -0.549, -2.319, , , , , , , 179.648, -0.89, -102.843, -78.300, 13.100, -69.807, 20.66, 0.00775, 0.62769, -0.77838, 0.0004, 407, 100,
 19:06:16.789,e8:da:bf:c6:3e:4f, 2015-01-01 00:24:32.245, 0.313, 0.015, -0.848, 1.77, -0.305, -7.812, , , , , , , 179.659, -0.884, -102.794, -78.300, 13.100, -69.807, 20.66, 0.00775, 0.62769, -0.77838, 0.0004, 407, 100,
 19:06:16.789,e8:da:bf:c6:3e:4f, 2015-01-01 00:24:32.245, 0.207, 0.025, -0.962, 1.16, -0.427, -12.451, , , , , , , 179.676, -0.879, -102.689, -78.300, 13.100, -69.807, 20.66, 0.00775, 0.62769, -0.77838, 0.0004, 407, 100,
 19:06:16.789,e8:da:bf:c6:3e:4f, 2015-01-01 00:24:32.245, 0.116, 0.022, -1.037, 0.061, -1.831, -15.93, , , , , , , 179.681, -0.868, -102.546, -78.300, 13.100, -69.807, 20.66, 0.00775, 0.62769, -0.77838, 0.0004, 407, 100,
 19:06:16.789,e8:da:bf:c6:3e:4f, 2015-01-01 00:24:32.245, -0.007, 0.006, -0.997, 0.061, -0.854, -19.714, , , , , , , 179.676, -0.851, -102.365, -78.300, 13.100, -69.807, 20.66, 0.00775, 0.62769, -0.77838, 0.0004, 407, 100,
 19:06:16.790,e8:da:bf:c6:3e:4f, 2015-01-01 00:24:32.245, -0.085, -0.002, -0.966, 0.61, -0.122, -18.982, , , , , , , 179.681, -0.846, -102.173, -78.300, 13.100, -69.807, 20.66, 0.00775, 0.62769, -0.77838, 0.0004, 407, 100,
 19:06:16.790,e8:da:bf:c6:3e:4f, 2015-01-01 00:24:32.245, -0.13, 0.005, -1.011, 0.305, 0.305, -16.724, , , , , , , 179.681, -0.84, -101.997, -78.300, 13.100, -69.807, 20.66, 0.00775, 0.62769, -0.77838, 0.0004, 407, 100,
 19:06:16.822,e8:da:bf:c6:3e:4f, 2015-01-01 00:24:32.245, -0.123, 0.011, -1.064, -0.977, 0, -12.817, , , , , , , 179.681, -0.846, -101.849, -78.300, 13.100, -69.807, 20.66, 0.00775, 0.62769, -0.77838, 0.0004, 407, 100,
 19:06:16.822,e8:da:bf:c6:3e:4f, 2015-01-01 00:24:32.245, -0.087, 0.001, -1.006, -0.977, -0.305, -9.521, , , , , , , 179.665, -0.84, -101.744, -78.300, 13.100, -69.807, 20.66, 0.00775, 0.62769, -0.77838, 0.0004, 407, 100,
 19:06:16.822,e8:da:bf:c6:3e:4f, 2015-01-01 00:24:32.245, -0.112, -0.003, -0.906, 0.122, -0.549, -9.644, , , , , , , 179.659, -0.835, -101.651, -78.300, 13.100, -69.807, 20.66, 0.00775, 0.62769, -0.77838, 0.0004, 407, 100,
 19:06:16.822,e8:da:bf:c6:3e:4f, 2015-01-01 00:24:32.245, -0.184, 0.006, -0.888, 1.16, -0.61, -8.728, , , , , , , 179.67, -0.829, -101.558, -78.300, 13.100, -69.807, 20.66, 0.00775, 0.62769, -0.77838, 0.0004, 407, 100,
 19:06:16.854,e8:da:bf:c6:3e:4f, 2015-01-01 00:24:32.245, -0.225, 0.021, -0.98, 0.732, -0.122, -4.761, , , , , , , 179.681, -0.824, -101.492, -78.300, 13.100, -69.807, 20.66, 0.00696, 0.63284, -0.77417, -0.00034, 407, 100,
 19:06:16.854,e8:da:bf:c6:3e:4f, 2015-01-01 00:24:32.245, -0.229, 0.021, -1.063, -0.549, 0.122, -0.61, , , , , , , 179.681, -0.824, -101.47, -78.300, 13.100, -69.807, 20.66, 0.00696, 0.63284, -0.77417, -0.00034, 407, 100,
 19:06:16.854,e8:da:bf:c6:3e:4f, 2015-01-01 00:24:32.245, -0.479, 0.01, -1.026, -0.732, -3.784, -0.183, , , , , , , 179.67, -0.807, -101.475, -78.300, 13.100, -69.807, 20.66, 0.00696, 0.63284, -0.77417, -0.00034, 407, 100,
 19:06:16.854,e8:da:bf:c6:3e:4f, 2015-01-01 00:24:32.245, -1.605, 0.003, -0.98, 1.587, -6.348, -3.113, , , , , , , 179.676, -0.753, -101.448, -78.300, 13.100, -69.807, 20.66, 0.00696, 0.63284, -0.77417, -0.00034, 407, 100,
 19:06:16.994,e8:da:bf:c6:3e:4f, 2015-01-01 00:24:32.605, -2.62, -0.027, -1.1, -0.916, -7.568, 27.344, , , , , , , 179.687, -0.681, -101.547, -78.300, 13.100, -69.807, 20.66, 0.00696, 0.63284, -0.77417, -0.00034, 407, 100,
 19:06:16.994,e8:da:bf:c6:3e:4f, 2015-01-01 00:24:32.605, -3.163, -0.104, -1.009, -1.221, -3.357, 69.336, , , , , , , 179.67, -0.626, -102.047, -78.300, 13.100, -69.807, 20.66, 0.00696, 0.63284, -0.77417, -0.00034, 407, 100,
 19:06:16.994,e8:da:bf:c6:3e:4f, 2015-01-01 00:24:32.605, -2.778, -0.233, -0.79, 0.61, 3.54, 123.474, , , , , , , 179.681, -0.632, -103.041, -78.300, 13.100, -69.807, 20.66, 0.00696, 0.63284, -0.77417, -0.00034, 407, 100,
 19:06:16.995,e8:da:bf:c6:3e:4f, 2015-01-01 00:24:32.605, -1.872, -0.348, -0.791, 0.977, 7.69, 162.048, , , , , , , 179.703, -0.709, -104.502, -78.300, 13.100, -69.807, 20.66, 0.00696, 0.63284, -0.77417, -0.00034, 407, 100,
 19:06:17.010,e8:da:bf:c6:3e:4f, 2015-01-01 00:24:32.605, -0.741, -0.42, -0.99, -1.404, 6.226, 187.866, , , , , , , 179.72, -0.791, -106.276, -78.300, 13.100, -69.807, 20.66, 0.00696, 0.63284, -0.77417, -0.00034, 407, 100,
 19:06:17.010,e8:da:bf:c6:3e:4f, 2015-01-01 00:24:32.605, -0.014, -0.429, -1.006, -1.038, 3.784, 193.115, , , , , , , 179.725, -0.851, -108.204, -78.300, 13.100, -69.807, 20.66, 0.00696, 0.63284, -0.77417, -0.00034, 407, 100,
 19:06:17.010,e8:da:bf:c6:3e:4f, 2015-01-01 00:24:32.605, 0.204, -0.409, -1.01, -0.061, 0, 189.941, , , , , , , 179.747, -0.868, -110.121, -78.300, 13.100, -69.807, 20.66, 0.00696, 0.63284, -0.77417, -0.00034, 407, 100,
 19:06:17.010,e8:da:bf:c6:3e:4f, 2015-01-01 00:24:32.605, 0.317, -0.396, -1.108, -1.648, 1.343, 189.88, , , , , , , 179.758, -0.89, -112.017, -78.300, 13.100, -69.807, 20.66, 0.00696, 0.63284, -0.77417, -0.00034, 407, 100,
 19:06:17.010,e8:da:bf:c6:3e:4f, 2015-01-01 00:24:32.605, 0.499, -0.385, -1.125, -3.54, -1.343, 187.256, , , , , , , 179.753, -0.895, -113.917, -78.300, 13.100, -69.807, 20.66, 0.00696, 0.63284, -0.77417, -0.00034, 407, 100,
 19:06:17.010,e8:da:bf:c6:3e:4f, 2015-01-01 00:24:32.605, 0.366, -0.374, -0.929, -2.197, -1.648, 171.082, , , , , , , 179.747, -0.89, -115.703, -78.300, 13.100, -69.807, 20.66, 0.00696, 0.63284, -0.77417, -0.00034, 407, 100,
 19:06:17.010,e8:da:bf:c6:3e:4f, 2015-01-01 00:24:32.605, 0.241, -0.369, -0.771, 0.854, -0.61, 167.419, , , , , , , 179.764, -0.884, -117.383, -78.300, 13.100, -69.807, 20.66, 0.00696, 0.63284, -0.77417, -0.00034, 407, 100,
 19:06:17.011,e8:da:bf:c6:3e:4f, 2015-01-01 00:24:32.605, 0.157, -0.35, -0.848, 2.136, -2.258, 165.894, , , , , , , 179.802, -0.884, -119.059, -78.300, 13.100, -69.807, 20.66, 0.00696, 0.63284, -0.77417, -0.00034, 407, 100,
 19:06:17.027,e8:da:bf:c6:3e:4f, 2015-01-01 00:24:32.605, 0.051, -0.328, -1.079, 0.183, -1.221, 162.048, , , , , , , 179.835, -0.862, -120.696, -78.300, 13.100, -69.807, 20.66, 0.00696, 0.63284, -0.77417, -0.00034, 407, 100,
 19:06:17.027,e8:da:bf:c6:3e:4f, 2015-01-01 00:24:32.605, 0.044, -0.324, -1.208, -2.747, -0.977, 164.185, , , , , , , 179.841, -0.868, -122.327, -78.300, 13.100, -69.807, 20.66, 0.00696, 0.63284, -0.77417, -0.00034, 407, 100,
 19:06:17.027,e8:da:bf:c6:3e:4f, 2015-01-01 00:24:32.605, 0.044, -0.337, -1.063, -2.747, -1.404, 163.269, , , , , , , 179.83, -0.857, -123.97, -78.300, 13.100, -69.807, 20.66, 0.00696, 0.63284, -0.77417, -0.00034, 407, 100,
 19:06:17.027,e8:da:bf:c6:3e:4f, 2015-01-01 00:24:32.605, -0.005, -0.345, -0.831, -0.122, -2.869, 159.912, , , , , , , 179.83, -0.846, -125.585, -78.300, 13.100, -69.807, 20.66, 0.00696, 0.63284, -0.77417, -0.00034, 407, 100,
 19:06:17.059,e8:da:bf:c6:3e:4f, 2015-01-01 00:24:32.605, -0.287, -0.33, -0.826, 2.075, -2.563, 155.212, , , , , , , 179.863, -0.818, -127.167, -78.300, 13.100, -69.807, 20.66, 0.00696, 0.63284, -0.77417, -0.00034, 407, 100,
 19:06:17.059,e8:da:bf:c6:3e:4f, 2015-01-01 00:24:32.605, -0.532, -0.324, -1.071, 0.305, -1.404, 161.987, , , , , , , 179.896, -0.807, -128.732, -78.300, 13.100, -69.807, 20.66, 0.00696, 0.63284, -0.77417, -0.00034, 407, 100,
 19:06:17.059,e8:da:bf:c6:3e:4f, 2015-01-01 00:24:32.605, -0.425, -0.365, -1.147, -2.991, -1.404, 180.725, , , , , , , 179.896, -0.791, -130.474, -78.300, 13.100, -69.807, 20.66, 0.00696, 0.63284, -0.77417, -0.00034, 407, 100,
 19:06:17.059,e8:da:bf:c6:3e:4f, 2015-01-01 00:24:32.605, -0.406, -0.416, -0.968, -1.465, -0.305, 180.908, , , , , , , 179.89, -0.791, -132.286, -78.300, 13.100, -69.807, 20.66, 0.00696, 0.63284, -0.77417, -0.00034, 407, 100,
 19:06:17.091,e8:da:bf:c6:3e:4f, 2015-01-01 00:24:32.605, -0.167, -0.462, -0.829, 0.793, 1.282, 192.139, , , , , , , 179.912, -0.797, -134.154, -78.300, 13.100, -69.807, 20.66, 0.00696, 0.63284, -0.77417, -0.00034, 407, 100,
 19:06:17.091,e8:da:bf:c6:3e:4f, 2015-01-01 00:24:32.605, 0.045, -0.456, -0.938, 0.244, 0.61, 193.787, , , , , , , 179.94, -0.818, -136.099, -78.300, 13.100, -69.807, 20.66, 0.00696, 0.63284, -0.77417, -0.00034, 407, 100,
 19:06:17.091,e8:da:bf:c6:3e:4f, 2015-01-01 00:24:32.605, 0.118, -0.432, -1.12, -1.892, -0.305, 190.918, , , , , , , 179.951, -0.818, -138.016, -78.300, 13.100, -69.807, 20.66, 0.00696, 0.63284, -0.77417, -0.00034, 407, 100,
 19:06:17.091,e8:da:bf:c6:3e:4f, 2015-01-01 00:24:32.605, 0.108, -0.429, -1.094, -2.93, -0.732, 189.087, , , , , , , 179.945, -0.824, -139.922, -78.300, 13.100, -69.807, 20.66, 0.00696, 0.63284, -0.77417, -0.00034, 407, 100,
 19:06:17.237,e8:da:bf:c6:3e:4f, 2015-01-01 00:24:32.605, 0.068, -0.449, -0.88, -0.671, -1.038, 186.707, , , , , , , 179.945, -0.813, -141.801, -78.300, 13.100, -69.807, 20.66, 0.00696, 0.63284, -0.77417, -0.00034, 407, 100,
 19:06:17.237,e8:da:bf:c6:3e:4f, 2015-01-01 00:24:32.605, 0.073, -0.457, -0.834, 1.343, -0.916, 187.134, , , , , , , 179.973, -0.807, -143.668, -78.300, 13.100, -69.807, 20.66, 0.00488, 0.17169, -0.98508, -0.00012, 407, 100,
 19:06:17.238,e8:da:bf:c6:3e:4f, 2015-01-01 00:24:32.605, 0.091, -0.436, -1.014, 0.061, -1.038, 186.646, , , , , , , -179.995, -0.797, -145.541, -78.300, 13.100, -69.807, 20.66, 0.00488, 0.17169, -0.98508, -0.00012, 407, 100,
 19:06:17.238,e8:da:bf:c6:3e:4f, 2015-01-01 00:24:32.605, 0.091, -0.414, -1.144, -2.258, -1.099, 185.242, , , , , , , -179.989, -0.791, -147.404, -78.300, 13.100, -69.807, 20.66, 0.00488, 0.17169, -0.98508, -0.00012, 407, 100,
 19:06:17.254,e8:da:bf:c6:3e:4f, 2015-01-01 00:24:32.605, 0.061, -0.417, -1.053, -2.563, -1.221, 183.655, , , , , , , -180, -0.775, -149.249, -78.300, 13.100, -69.807, 20.66, 0.00488, 0.17169, -0.98508, -0.00012, 407, 100,
 19:06:17.254,e8:da:bf:c6:3e:4f, 2015-01-01 00:24:32.605, 0.054, -0.435, -0.873, -0.488, -1.282, 183.655, , , , , , , -179.995, -0.769, -151.084, -78.300, 13.100, -69.807, 20.66, 0.00488, 0.17169, -0.98508, -0.00012, 407, 100,
 19:06:17.254,e8:da:bf:c6:3e:4f, 2015-01-01 00:24:32.605, 0.075, -0.432, -0.858, 0.977, -1.099, 183.716, , , , , , , -179.973, -0.753, -152.924, -78.300, 13.100, -69.807, 20.66, 0.00488, 0.17169, -0.98508, -0.00012, 407, 100,
 19:06:17.254,e8:da:bf:c6:3e:4f, 2015-01-01 00:24:32.605, 0.106, -0.403, -1.006, -0.244, 0, 183.105, , , , , , , -179.945, -0.747, -154.759, -78.300, 13.100, -69.807, 20.66, 0.00488, 0.17169, -0.98508, -0.00012, 407, 100,
 19:06:17.254,e8:da:bf:c6:3e:4f, 2015-01-01 00:24:32.605, 0.416, -0.391, -1.044, -1.404, 1.892, 187.927, , , , , , , -179.94, -0.758, -156.616, -78.300, 13.100, -69.807, 20.66, 0.00488, 0.17169, -0.98508, -0.00012, 407, 100,
 19:06:17.254,e8:da:bf:c6:3e:4f, 2015-01-01 00:24:32.605, 0.923, -0.387, -0.961, 0.366, -2.197, 184.814, , , , , , , -179.929, -0.764, -158.5, -78.300, 13.100, -69.807, 20.66, 0.00488, 0.17169, -0.98508, -0.00012, 407, 100,
 19:06:17.254,e8:da:bf:c6:3e:4f, 2015-01-01 00:24:32.605, 1.247, -0.341, -0.979, -0.061, 0.244, 161.987, , , , , , , -179.907, -0.742, -160.219, -78.300, 13.100, -69.807, 20.66, 0.00488, 0.17169, -0.98508, -0.00012, 407, 100,
 19:06:17.255,e8:da:bf:c6:3e:4f, 2015-01-01 00:24:32.605, 2.258, -0.293, -1.084, -1.465, 0.916, 157.288, , , , , , , -179.901, -0.764, -161.818, -78.300, 13.100, -69.807, 20.66, 0.00488, 0.17169, -0.98508, -0.00012, 407, 100,
 19:06:17.271,e8:da:bf:c6:3e:4f, 2015-01-01 00:24:32.605, 2.934, -0.185, -1.026, -1.221, 0.977, 116.699, , , , , , , -179.896, -0.758, -163.202, -78.300, 13.100, -69.807, 20.66, 0.00488, 0.17169, -0.98508, -0.00012, 409, 100,
 19:06:17.272,e8:da:bf:c6:3e:4f, 2015-01-01 00:24:32.605, 3.245, -0.077, -0.892, -0.122, 0.366, 71.838, , , , , , , -179.896, -0.775, -164.108, -78.300, 13.100, -69.807, 20.66, 0.00488, 0.17169, -0.98508, -0.00012, 409, 100,
 19:06:17.272,e8:da:bf:c6:3e:4f, 2015-01-01 00:24:32.605, 2.82, 0.01, -0.859, 1.587, -5.127, 21.973, , , , , , , -179.879, -0.742, -164.575, -78.300, 13.100, -69.807, 20.66, 0.00488, 0.17169, -0.98508, -0.00012, 409, 100,
 19:06:17.273,e8:da:bf:c6:3e:4f, 2015-01-01 00:24:32.605, 1.795, 0.042, -0.988, 0.183, -5.249, -20.325, , , , , , , -179.868, -0.687, -164.537, -78.300, 13.100, -69.807, 20.66, 0.00488, 0.17169, -0.98508, -0.00012, 409, 100,
 19:06:17.305,e8:da:bf:c6:3e:4f, 2015-01-01 00:24:32.605, 0.791, 0.019, -1.01, 0, 0, -44.495, , , , , , , -179.874, -0.659, -164.191, -78.300, 13.100, -69.807, 20.66, 0.00488, 0.17169, -0.98508, -0.00012, 409, 100,
 19:06:17.305,e8:da:bf:c6:3e:4f, 2015-01-01 00:24:32.605, 0.044, 0.011, -0.956, 1.038, -1.404, -57.739, , , , , , , -179.868, -0.654, -163.663, -78.300, 13.100, -69.807, 20.66, 0.00488, 0.17169, -0.98508, -0.00012, 409, 100,
 19:06:17.305,e8:da:bf:c6:3e:4f, 2015-01-01 00:24:32.605, -0.407, 0.007, -1.045, -1.526, 0, -55.908, , , , , , , -179.879, -0.654, -163.087, -78.300, 13.100, -69.807, 20.66, 0.00488, 0.17169, -0.98508, -0.00012, 409, 100,
 19:06:17.305,e8:da:bf:c6:3e:4f, 2015-01-01 00:24:32.605, -0.621, -0.01, -1.091, -2.319, -4.089, -44.373, , , , , , , -179.907, -0.632, -162.587, -78.300, 13.100, -69.807, 20.66, 0.00488, 0.17169, -0.98508, -0.00012, 409, 100,
 19:06:17.449,e8:da:bf:c6:3e:4f, 2015-01-01 00:24:32.605, -0.911, -0.031, -1.03, -1.831, -3.601, -35.095, , , , , , , -179.929, -0.593, -162.202, -78.300, 13.100, -69.807, 20.77, 0.00488, 0.17169, -0.98508, -0.00012, 409, 100,
 19:06:17.449,e8:da:bf:c6:3e:4f, 2015-01-01 00:24:33.110, -1.101, -0.057, -0.893, -0.061, -1.099, -20.081, , , , , , , -179.94, -0.571, -161.922, -78.300, 13.100, -69.807, 20.77, 0.00488, 0.17169, -0.98508, -0.00012, 409, 100,
 19:06:17.449,e8:da:bf:c6:3e:4f, 2015-01-01 00:24:33.110, -1.044, -0.053, -0.83, 1.404, 0.61, -0.549, , , , , , , -179.934, -0.571, -161.84, -78.300, 13.100, -69.807, 20.77, 0.00488, 0.17169, -0.98508, -0.00012, 409, 100,
 19:06:17.450,e8:da:bf:c6:3e:4f, 2015-01-01 00:24:33.110, -0.777, -0.021, -0.919, 1.526, 2.319, 13.55, , , , , , , -179.918, -0.588, -161.911, -78.300, 13.100, -69.807, 20.77, 0.00488, 0.17169, -0.98508, -0.00012, 409, 100,
 19:06:17.466,e8:da:bf:c6:3e:4f, 2015-01-01 00:24:33.110, -0.422, -0.002, -1.021, 0.244, 3.906, 26.611, , , , , , , -179.907, -0.621, -162.131, -78.300, 13.100, -69.807, 20.77, 0.00488, 0.17169, -0.98508, -0.00012, 409, 100,
 19:06:17.466,e8:da:bf:c6:3e:4f, 2015-01-01 00:24:33.110, -0.147, -0.011, -1.001, 0.366, 5.066, 31.25, , , , , , , -179.901, -0.665, -162.427, -78.300, 13.100, -69.807, 20.77, 0.00488, 0.17169, -0.98508, -0.00012, 409, 100,
 19:06:17.466,e8:da:bf:c6:3e:4f, 2015-01-01 00:24:33.110, 0.033, -0.024, -1.03, -0.061, 1.038, 34.119, , , , , , , -179.896, -0.698, -162.757, -78.300, 13.100, -69.807, 20.77, 0.00488, 0.17169, -0.98508, -0.00012, 409, 100,
 19:06:17.466,e8:da:bf:c6:3e:4f, 2015-01-01 00:24:33.110, 0.11, -0.019, -1.048, -0.854, 0.061, 33.691, , , , , , , -179.896, -0.703, -163.103, -78.300, 13.100, -69.807, 20.77, 0.00488, 0.17169, -0.98508, -0.00012, 409, 100,
 19:06:17.466,e8:da:bf:c6:3e:4f, 2015-01-01 00:24:33.110, 0.177, -0.003, -0.988, -0.671, 1.587, 33.02, , , , , , , -179.901, -0.709, -163.433, -78.300, 13.100, -69.807, 20.77, 0.00488, 0.17169, -0.98508, -0.00012, 409, 100,
 19:06:17.467,e8:da:bf:c6:3e:4f, 2015-01-01 00:24:33.110, 0.554, 0, -0.887, 0.671, 2.258, 35.583, , , , , , , -179.901, -0.736, -163.779, -78.300, 13.100, -69.807, 20.77, 0.00488, 0.17169, -0.98508, -0.00012, 409, 100,
 19:06:17.467,e8:da:bf:c6:3e:4f, 2015-01-01 00:24:33.110, 0.969, 0.015, -0.89, 2.747, -1.526, 26.123, , , , , , , -179.874, -0.736, -164.108, -78.300, 13.100, -69.807, 20.77, 0.00488, 0.17169, -0.98508, -0.00012, 409, 100,
 19:06:17.467,e8:da:bf:c6:3e:4f, 2015-01-01 00:24:33.110, 0.936, 0.032, -1.035, 0.427, 0.305, 1.465, , , , , , , -179.857, -0.731, -164.229, -78.300, 13.100, -69.807, 20.77, 0.00488, 0.17169, -0.98508, -0.00012, 409, 100,
 19:06:17.467,e8:da:bf:c6:3e:4f, 2015-01-01 00:24:33.110, 0.81, 0.016, -1.097, -1.099, -1.526, -9.766, , , , , , , -179.863, -0.725, -164.18, -78.300, 13.100, -69.807, 20.77, 0.00488, 0.17169, -0.98508, -0.00012, 409, 100,
 19:06:17.467,e8:da:bf:c6:3e:4f, 2015-01-01 00:24:33.110, 0.449, 0.001, -0.991, -0.549, -1.465, -24.841, , , , , , , -179.874, -0.709, -163.998, -78.300, 13.100, -69.807, 20.77, 0.00488, 0.17169, -0.98508, -0.00012, 409, 100,
 19:06:17.468,e8:da:bf:c6:3e:4f, 2015-01-01 00:24:33.110, 0.115, -0.003, -0.937, -0.183, -2.014, -30.518, , , , , , , -179.879, -0.692, -163.713, -78.300, 13.100, -69.807, 20.77, 0.00488, 0.17169, -0.98508, -0.00012, 409, 100,
 19:06:17.468,e8:da:bf:c6:3e:4f, 2015-01-01 00:24:33.110, -0.077, 0.007, -0.99, -0.977, -0.671, -30.701, , , , , , , -179.89, -0.676, -163.405, -78.300, 13.100, -69.807, 20.77, 0.00488, 0.17169, -0.98508, -0.00012, 409, 100,
 19:06:17.516,e8:da:bf:c6:3e:4f, 2015-01-01 00:24:33.110, -0.131, 0.006, -1.004, -0.977, -0.488, -28.015, , , , , , , -179.901, -0.676, -163.114, -78.300, 13.100, -69.807, 20.77, 0.00488, 0.17169, -0.98508, -0.00012, 409, 100,
 19:06:17.516,e8:da:bf:c6:3e:4f, 2015-01-01 00:24:33.110, -0.127, -0.007, -0.959, -0.366, -0.244, -24.902, , , , , , , -179.912, -0.676, -162.85, -78.300, 13.100, -69.807, 20.77, 0.00488, 0.17169, -0.98508, -0.00012, 409, 100,
 19:06:17.516,e8:da:bf:c6:3e:4f, 2015-01-01 00:24:33.110, -0.24, -0.024, -0.927, 0.488, -1.77, -24.536, , , , , , , -179.912, -0.665, -162.609, -78.300, 13.100, -69.807, 20.77, 0.00488, 0.17169, -0.98508, -0.00012, 409, 100,
 19:06:17.516,e8:da:bf:c6:3e:4f, 2015-01-01 00:24:33.110, -0.428, -0.027, -0.983, 0.549, -1.587, -20.874, , , , , , , -179.907, -0.648, -162.372, -78.300, 13.100, -69.807, 20.77, 0.00488, 0.17169, -0.98508, -0.00012, 409, 100,
 19:06:17.652,e8:da:bf:c6:3e:4f, 2015-01-01 00:24:33.110, -0.475, -0.005, -1.063, -1.038, -1.099, -9.766, , , , , , , -179.912, -0.632, -162.235, -78.300, 13.100, -69.807, 20.77, 0.00488, 0.17169, -0.98508, -0.00012, 409, 100,
 19:06:17.652,e8:da:bf:c6:3e:4f, 2015-01-01 00:24:33.110, -0.503, 0.013, -0.995, -1.038, -0.427, -4.395, , , , , , , -179.923, -0.626, -162.169, -78.300, 13.100, -69.807, 20.77, 0.00488, 0.17169, -0.98508, -0.00012, 409, 100,
 19:06:17.652,e8:da:bf:c6:3e:4f, 2015-01-01 00:24:33.110, -0.454, 0.005, -0.877, 0.549, 0.366, 3.479, , , , , , , -179.923, -0.626, -162.169, -78.300, 13.100, -69.807, 20.77, 0.00488, 0.17169, -0.98508, -0.00012, 409, 100,
 19:06:17.652,e8:da:bf:c6:3e:4f, 2015-01-01 00:24:33.110, -0.359, -0.014, -0.875, 1.709, 1.526, 9.888, , , , , , , -179.912, -0.637, -162.241, -78.300, 13.100, -69.807, 20.77, 0.00488, 0.17169, -0.98508, -0.00012, 409, 100,
 19:06:17.668,e8:da:bf:c6:3e:4f, 2015-01-01 00:24:33.110, -0.193, -0.024, -0.991, 1.221, 2.747, 16.357, , , , , , , -179.896, -0.659, -162.378, -78.300, 13.100, -69.807, 20.77, 0.00488, 0.17169, -0.98508, -0.00012, 409, 100,
 19:06:17.668,e8:da:bf:c6:3e:4f, 2015-01-01 00:24:33.110, -0.026, -0.017, -1.097, -0.549, 2.319, 19.348, , , , , , , -179.89, -0.692, -162.565, -78.300, 13.100, -69.807, 20.77, 0.00488, 0.17169, -0.98508, -0.00012, 409, 100,
 19:06:17.668,e8:da:bf:c6:3e:4f, 2015-01-01 00:24:33.110, 0.049, -0.001, -1.063, -1.221, 0.793, 18.433, , , , , , , -179.901, -0.703, -162.757, -78.300, 13.100, -69.807, 20.77, 0.00488, 0.17169, -0.98508, -0.00012, 409, 100,
 19:06:17.668,e8:da:bf:c6:3e:4f, 2015-01-01 00:24:33.110, 0.064, 0.006, -0.945, -0.183, 0.244, 16.724, , , , , , , -179.907, -0.709, -162.933, -78.300, 13.100, -69.807, 20.77, 0.00488, 0.17169, -0.98508, -0.00012, 409, 100,
 19:06:17.669,e8:da:bf:c6:3e:4f, 2015-01-01 00:24:33.110, 0.056, 0.005, -0.922, 0.427, 0, 15.93, , , , , , , -179.901, -0.709, -163.098, -78.300, 13.100, -69.807, 20.77, 0.00488, 0.17169, -0.98508, -0.00012, 409, 100,
 19:06:17.669,e8:da:bf:c6:3e:4f, 2015-01-01 00:24:33.110, 0.044, -0.004, -0.976, 0.122, 0.61, 16.663, , , , , , , -179.896, -0.714, -163.257, -78.300, 13.100, -69.807, 20.77, 0.00488, 0.17169, -0.98508, -0.00012, 409, 100,
 19:06:17.669,e8:da:bf:c6:3e:4f, 2015-01-01 00:24:33.110, 0.173, -0.013, -0.996, 0.061, 1.099, 21.301, , , , , , , -179.89, -0.725, -163.449, -78.300, 13.100, -69.807, 20.77, 0.00488, 0.17169, -0.98508, -0.00012, 409, 100,
 19:06:17.669,e8:da:bf:c6:3e:4f, 2015-01-01 00:24:33.110, 0.513, -0.003, -0.979, 0.61, 0, 22.644, , , , , , , -179.885, -0.731, -163.685, -78.300, 13.100, -69.807, 20.77, 0.00488, 0.17169, -0.98508, -0.00012, 409, 100,
 19:06:17.669,e8:da:bf:c6:3e:4f, 2015-01-01 00:24:33.110, 0.496, 0.027, -0.967, 0.549, -0.061, 4.456, , , , , , , -179.879, -0.725, -163.823, -78.300, 13.100, -69.807, 20.77, 0.00488, 0.17169, -0.98508, -0.00012, 409, 100,
 19:06:17.669,e8:da:bf:c6:3e:4f, 2015-01-01 00:24:33.110, 0.531, 0.031, -0.993, 0, 2.136, -1.648, , , , , , , -179.874, -0.736, -163.812, -78.300, 13.100, -69.807, 20.77, 0.00488, 0.17169, -0.98508, -0.00012, 409, 100,
 19:06:17.669,e8:da:bf:c6:3e:4f, 2015-01-01 00:24:33.110, 1.449, 0.026, -1.015, 0.488, -1.221, 2.258, , , , , , , -179.874, -0.753, -163.828, -78.300, 13.100, -69.807, 20.77, 0.00488, 0.17169, -0.98508, -0.00012, 409, 100,
 19:06:17.669,e8:da:bf:c6:3e:4f, 2015-01-01 00:24:33.110, 2.448, 0.036, -1.072, -1.404, 1.038, -22.156, , , , , , , -179.879, -0.742, -163.757, -78.300, 13.100, -69.807, 20.77, 0.00488, 0.17169, -0.98508, -0.00012, 409, 100,
 19:06:17.717,e8:da:bf:c6:3e:4f, 2015-01-01 00:24:33.110, 3.024, 0.009, -0.995, -1.099, 2.258, -63.782, , , , , , , -179.896, -0.775, -163.312, -78.300, 13.100, -69.807, 20.77, 0.00488, 0.17169, -0.98508, -0.00012, 409, 100,
 19:06:17.717,e8:da:bf:c6:3e:4f, 2015-01-01 00:24:33.110, 2.845, -0.061, -0.848, 1.282, -2.747, -111.389, , , , , , , -179.901, -0.764, -162.422, -78.300, 13.100, -69.807, 20.77, 0.00491, 0.15817, -0.98734, -0.00015, 409, 100,
 19:06:17.717,e8:da:bf:c6:3e:4f, 2015-01-01 00:24:33.110, 2.017, -0.166, -0.883, 1.587, -4.822, -154.602, , , , , , , -179.901, -0.731, -161.054, -78.300, 13.100, -69.807, 20.77, 0.00491, 0.15817, -0.98734, -0.00015, 409, 100,
 19:06:17.717,e8:da:bf:c6:3e:4f, 2015-01-01 00:24:33.110, 1.02, -0.281, -1.006, 0.549, -1.16, -179.565, , , , , , , -179.907, -0.692, -159.362, -78.300, 13.100, -69.807, 20.77, 0.00491, 0.15817, -0.98734, -0.00015, 409, 100,
 19:06:17.749,e8:da:bf:c6:3e:4f, 2015-01-01 00:24:33.110, 0.273, -0.364, -0.998, 1.282, 1.404, -191.467, , , , , , , -179.912, -0.714, -157.495, -78.300, 13.100, -69.807, 20.77, 0.00491, 0.15817, -0.98734, -0.00015, 409, 100,
 19:06:17.749,e8:da:bf:c6:3e:4f, 2015-01-01 00:24:33.110, -0.141, -0.402, -1.014, -0.061, 1.038, -195.984, , , , , , , -179.923, -0.709, -155.55, -78.300, 13.100, -69.807, 20.77, 0.00491, 0.15817, -0.98734, -0.00015, 409, 100,
 19:06:17.749,e8:da:bf:c6:3e:4f, 2015-01-01 00:24:33.110, -0.296, -0.423, -1.029, -0.732, 2.014, -191.04, , , , , , , -179.945, -0.736, -153.611, -78.300, 13.100, -69.807, 20.77, 0.00491, 0.15817, -0.98734, -0.00015, 409, 100,
 19:06:17.749,e8:da:bf:c6:3e:4f, 2015-01-01 00:24:33.110, -0.166, -0.429, -1.001, 0, 0.549, -178.711, , , , , , , -179.967, -0.747, -151.765, -78.300, 13.100, -69.807, 20.77, 0.00491, 0.15817, -0.98734, -0.00015, 409, 100,
 19:06:17.905,e8:da:bf:c6:3e:4f, 2015-01-01 00:24:33.465, -0.134, -0.411, -0.945, 0.488, 0.854, -178.223, , , , , , , -179.984, -0.758, -149.991, -78.300, 13.100, -69.807, 20.77, 0.00491, 0.15817, -0.98734, -0.00015, 409, 100,
 19:06:17.906,e8:da:bf:c6:3e:4f, 2015-01-01 00:24:33.465, -0.127, -0.392, -0.93, 1.282, 1.16, -175.964, , , , , , , -179.989, -0.764, -148.217, -78.300, 13.100, -69.807, 20.77, 0.00491, 0.15817, -0.98734, -0.00015, 409, 100,
 19:06:17.906,e8:da:bf:c6:3e:4f, 2015-01-01 00:24:33.465, -0.096, -0.371, -0.991, 0.793, 1.587, -172.791, , , , , , , -179.995, -0.786, -146.481, -78.300, 13.100, -69.807, 20.77, 0.00491, 0.15817, -0.98734, -0.00015, 409, 100,
 19:06:17.906,e8:da:bf:c6:3e:4f, 2015-01-01 00:24:33.465, -0.067, -0.366, -1.02, 0.122, 1.404, -171.692, , , , , , , 179.989, -0.797, -144.756, -78.300, 13.100, -69.807, 20.77, 0.00491, 0.15817, -0.98734, -0.00015, 409, 100,
 19:06:17.922,e8:da:bf:c6:3e:4f, 2015-01-01 00:24:33.465, -0.059, -0.372, -0.988, 0.549, 0.916, -170.593, , , , , , , 179.978, -0.807, -143.047, -78.300, 13.100, -69.807, 20.77, 0.00491, 0.15817, -0.98734, -0.00015, 409, 100,
 19:06:17.922,e8:da:bf:c6:3e:4f, 2015-01-01 00:24:33.465, -0.045, -0.376, -0.967, 0.916, 1.221, -169.189, , , , , , , 179.967, -0.813, -141.35, -78.300, 13.100, -69.807, 20.77, 0.00491, 0.15817, -0.98734, -0.00015, 409, 100,
 19:06:17.922,e8:da:bf:c6:3e:4f, 2015-01-01 00:24:33.465, -0.015, -0.367, -0.983, 0.916, 1.282, -167.847, , , , , , , 179.956, -0.829, -139.669, -78.300, 13.100, -69.807, 20.77, 0.00491, 0.15817, -0.98734, -0.00015, 409, 100,
 19:06:17.922,e8:da:bf:c6:3e:4f, 2015-01-01 00:24:33.465, 0.009, -0.349, -1.023, 0.305, 2.38, -165.71, , , , , , , 179.945, -0.84, -137.999, -78.300, 13.100, -69.807, 20.77, 0.00491, 0.15817, -0.98734, -0.00015, 409, 100,
 19:06:17.923,e8:da:bf:c6:3e:4f, 2015-01-01 00:24:33.465, 0.286, -0.341, -1.019, -0.122, 0, -158.569, , , , , , , 179.923, -0.857, -136.379, -78.300, 13.100, -69.807, 20.77, 0.00491, 0.15817, -0.98734, -0.00015, 409, 100,
 19:06:17.923,e8:da:bf:c6:3e:4f, 2015-01-01 00:24:33.465, 0.546, -0.341, -0.94, 1.16, -0.183, -164.246, , , , , , , 179.912, -0.846, -134.786, -78.300, 13.100, -69.807, 20.77, 0.00491, 0.15817, -0.98734, -0.00015, 409, 100,
 19:06:17.923,e8:da:bf:c6:3e:4f, 2015-01-01 00:24:33.465, 0.367, -0.362, -0.906, 1.282, 2.563, -184.265, , , , , , , 179.907, -0.862, -133.028, -78.300, 13.100, -69.807, 20.77, 0.00491, 0.15817, -0.98734, -0.00015, 409, 100,
 19:06:17.923,e8:da:bf:c6:3e:4f, 2015-01-01 00:24:33.465, 0.309, -0.405, -0.975, 1.221, 0.977, -183.838, , , , , , , 179.896, -0.873, -131.177, -78.300, 13.100, -69.807, 20.77, 0.00491, 0.15817, -0.98734, -0.00015, 409, 100,
 19:06:17.923,e8:da:bf:c6:3e:4f, 2015-01-01 00:24:33.465, 0.192, -0.424, -1.031, 0.61, -0.122, -189.636, , , , , , , 179.885, -0.879, -129.32, -78.300, 13.100, -69.807, 20.77, 0.00491, 0.15817, -0.98734, -0.00015, 409, 100,
 19:06:17.923,e8:da:bf:c6:3e:4f, 2015-01-01 00:24:33.465, 0.032, -0.438, -1.016, 0.244, 0.488, -193.848, , , , , , , 179.863, -0.868, -127.392, -78.300, 13.100, -69.807, 20.77, 0.00491, 0.15817, -0.98734, -0.00015, 409, 100,
 19:06:17.924,e8:da:bf:c6:3e:4f, 2015-01-01 00:24:33.465, -0.074, -0.444, -0.981, 0.427, 0.244, -191.772, , , , , , , 179.846, -0.873, -125.464, -78.300, 13.100, -69.807, 20.77, 0.00491, 0.15817, -0.98734, -0.00015, 409, 100,
 19:06:17.924,e8:da:bf:c6:3e:4f, 2015-01-01 00:24:33.465, -0.093, -0.441, -0.953, 0.977, 0.916, -189.026, , , , , , , 179.83, -0.868, -123.563, -78.300, 13.100, -69.807, 20.77, 0.00491, 0.15817, -0.98734, -0.00015, 409, 100,
 19:06:17.971,e8:da:bf:c6:3e:4f, 2015-01-01 00:24:33.465, -0.066, -0.439, -0.968, 1.038, 0.916, -186.646, , , , , , , 179.819, -0.873, -121.69, -78.300, 13.100, -69.807, 20.77, 0.00491, 0.15817, -0.98734, -0.00015, 409, 100,
 19:06:17.971,e8:da:bf:c6:3e:4f, 2015-01-01 00:24:33.465, -0.067, -0.436, -0.992, 0.854, 0.732, -186.157, , , , , , , 179.808, -0.873, -119.828, -78.300, 13.100, -69.807, 20.77, 0.00491, 0.15817, -0.98734, -0.00015, 409, 100,
 19:06:17.971,e8:da:bf:c6:3e:4f, 2015-01-01 00:24:33.465, -0.072, -0.432, -1.002, 0.732, 1.038, -184.814, , , , , , , 179.791, -0.879, -117.971, -78.300, 13.100, -69.807, 20.77, 0.00491, 0.15817, -0.98734, -0.00015, 409, 100,
 19:06:17.971,e8:da:bf:c6:3e:4f, 2015-01-01 00:24:33.465, -0.062, -0.422, -1.012, 0.427, 1.099, -182.922, , , , , , , 179.775, -0.873, -116.136, -78.300, 13.100, -69.807, 20.77, 0.00491, 0.15817, -0.98734, -0.00015, 409, 100,
 19:06:17.987,e8:da:bf:c6:3e:4f, 2015-01-01 00:24:33.465, -0.052, -0.414, -0.998, 0.244, 1.099, -181.885, , , , , , , 179.758, -0.884, -114.313, -78.300, 13.100, -69.807, 20.77, 0.00491, 0.15817, -0.98734, -0.00015, 409, 100,
 19:06:17.987,e8:da:bf:c6:3e:4f, 2015-01-01 00:24:33.465, -0.053, -0.407, -0.965, 0.61, 0.793, -181.274, , , , , , , 179.742, -0.879, -112.5, -78.300, 13.100, -69.807, 20.77, 0.00491, 0.15817, -0.98734, -0.00015, 409, 100,
 19:06:17.987,e8:da:bf:c6:3e:4f, 2015-01-01 00:24:33.465, -0.068, -0.399, -0.953, 0.793, 0.732, -180.359, , , , , , , 179.725, -0.884, -110.693, -78.300, 13.100, -69.807, 20.77, 0.00491, 0.15817, -0.98734, -0.00015, 409, 100,
 19:06:17.987,e8:da:bf:c6:3e:4f, 2015-01-01 00:24:33.465, -0.083, -0.39, -0.953, 1.221, 0.732, -178.955, , , , , , , 179.714, -0.873, -108.896, -78.300, 13.100, -69.807, 20.77, 0.00491, 0.15817, -0.98734, -0.00015, 409, 100,
 19:06:18.019,e8:da:bf:c6:3e:4f, 2015-01-01 00:24:33.465, -0.083, -0.383, -0.985, 1.16, 0.305, -177.734, , , , , , , 179.709, -0.879, -107.117, -78.300, 13.100, -69.807, 20.77, 0.00491, 0.15817, -0.98734, -0.00015, 409, 100,
 19:06:18.019,e8:da:bf:c6:3e:4f, 2015-01-01 00:24:33.465, -0.507, -0.371, -1.008, 0.671, -4.028, -182.8, , , , , , , 179.692, -0.84, -105.326, -78.300, 13.100, -69.807, 20.77, 0.00491, 0.15817, -0.98734, -0.00015, 409, 100,
 19:06:18.019,e8:da:bf:c6:3e:4f, 2015-01-01 00:24:33.465, -1.978, -0.36, -1.05, 3.235, -7.202, -189.758, , , , , , , 179.692, -0.775, -103.431, -78.300, 13.100, -69.807, 20.77, 0.00491, 0.15817, -0.98734, -0.00015, 409, 100,
 19:06:18.019,e8:da:bf:c6:3e:4f, 2015-01-01 00:24:33.465, -3.281, -0.344, -1.128, -0.916, -10.01, -146.24, , , , , , , 179.692, -0.67, -101.75, -78.300, 13.100, -69.807, 20.77, 0.00491, 0.15817, -0.98734, -0.00015, 409, 100,
 19:06:18.170,e8:da:bf:c6:3e:4f, 2015-01-01 00:24:33.465, -4.315, -0.298, -0.99, 1.77, -4.517, -98.816, , , , , , , 179.676, -0.588, -100.541, -78.300, 13.100, -69.807, 20.77, 0.0076, 0.62915, -0.77719, 0.00021, 409, 100,
 19:06:18.170,e8:da:bf:c6:3e:4f, 2015-01-01 00:24:33.825, -4.059, -0.25, -0.769, 2.258, 3.845, -23.193, , , , , , , 179.703, -0.588, -99.959, -78.300, 13.100, -69.807, 20.77, 0.0076, 0.62915, -0.77719, 0.00021, 409, 100,
 19:06:18.170,e8:da:bf:c6:3e:4f, 2015-01-01 00:24:33.825, -2.744, -0.189, -0.801, 1.038, 9.949, 35.095, , , , , , , 179.72, -0.659, -100.074, -78.300, 13.100, -69.807, 20.77, 0.0076, 0.62915, -0.77719, 0.00021, 409, 100,
 19:06:18.170,e8:da:bf:c6:3e:4f, 2015-01-01 00:24:33.825, -0.999, -0.135, -1.005, -5.127, 10.376, 81.299, , , , , , , 179.703, -0.78, -100.706, -78.300, 13.100, -69.807, 20.77, 0.0076, 0.62915, -0.77719, 0.00021, 409, 100,
 19:06:18.186,e8:da:bf:c6:3e:4f, 2015-01-01 00:24:33.825, 0.109, -0.056, -0.987, -1.404, 5.554, 87.769, , , , , , , 179.676, -0.857, -101.58, -78.300, 13.100, -69.807, 20.77, 0.0076, 0.62915, -0.77719, 0.00021, 409, 100,
 19:06:18.186,e8:da:bf:c6:3e:4f, 2015-01-01 00:24:33.825, 0.807, -0.017, -1.039, 0, 3.906, 83.496, , , , , , , 179.681, -0.906, -102.431, -78.300, 13.100, -69.807, 20.77, 0.0076, 0.62915, -0.77719, 0.00021, 409, 100,
 19:06:18.186,e8:da:bf:c6:3e:4f, 2015-01-01 00:24:33.825, 1.746, 0.005, -1.241, -2.319, 0, 77.148, , , , , , , 179.681, -0.928, -103.25, -78.300, 13.100, -69.807, 20.77, 0.0076, 0.62915, -0.77719, 0.00021, 409, 100,
 19:06:18.186,e8:da:bf:c6:3e:4f, 2015-01-01 00:24:33.825, 2.049, 0.029, -1.14, -4.883, -0.488, 37.598, , , , , , , 179.648, -0.928, -103.826, -78.300, 13.100, -69.807, 20.77, 0.0076, 0.62915, -0.77719, 0.00021, 409, 100,
 19:06:18.186,e8:da:bf:c6:3e:4f, 2015-01-01 00:24:33.825, 1.917, 0.021, -0.75, -0.61, -1.709, 6.165, , , , , , , 179.621, -0.923, -104.013, -78.300, 13.100, -69.807, 20.77, 0.0076, 0.62915, -0.77719, 0.00021, 409, 100,
 19:06:18.186,e8:da:bf:c6:3e:4f, 2015-01-01 00:24:33.825, 1.323, 0.034, -0.598, 4.639, -4.395, -23.254, , , , , , , 179.643, -0.884, -103.92, -78.300, 13.100, -69.807, 20.77, 0.0076, 0.62915, -0.77719, 0.00021, 409, 100,
 19:06:18.187,e8:da:bf:c6:3e:4f, 2015-01-01 00:24:33.825, 0.528, 0.052, -0.886, 4.333, -0.061, -41.016, , , , , , , 179.692, -0.862, -103.574, -78.300, 13.100, -69.807, 20.77, 0.0076, 0.62915, -0.77719, 0.00021, 409, 100,
 19:06:18.187,e8:da:bf:c6:3e:4f, 2015-01-01 00:24:33.825, 0.082, 0.039, -1.193, -0.061, -1.892, -46.082, , , , , , , 179.703, -0.851, -103.134, -78.300, 13.100, -69.807, 20.77, 0.0076, 0.62915, -0.77719, 0.00021, 409, 100,
 19:06:18.203,e8:da:bf:c6:3e:4f, 2015-01-01 00:24:33.825, -0.132, -0.01, -1.153, -1.77, -0.244, -48.157, , , , , , , 179.687, -0.835, -102.662, -78.300, 13.100, -69.807, 20.77, 0.0076, 0.62915, -0.77719, 0.00021, 409, 100,
 19:06:18.203,e8:da:bf:c6:3e:4f, 2015-01-01 00:24:33.825, -0.294, -0.048, -0.99, -0.244, -0.854, -46.265, , , , , , , 179.67, -0.835, -102.189, -78.300, 13.100, -69.807, 20.77, 0.0076, 0.62915, -0.77719, 0.00021, 409, 100,
 19:06:18.203,e8:da:bf:c6:3e:4f, 2015-01-01 00:24:33.825, -0.623, -0.036, -0.911, 0.854, -3.418, -41.87, , , , , , , 179.67, -0.807, -101.75, -78.300, 13.100, -69.807, 20.77, 0.0076, 0.62915, -0.77719, 0.00021, 409, 100,
 19:06:18.203,e8:da:bf:c6:3e:4f, 2015-01-01 00:24:33.825, -0.979, -0.009, -0.955, 1.587, -2.075, -30.396, , , , , , , 179.681, -0.775, -101.387, -78.300, 13.100, -69.807, 20.77, 0.0076, 0.62915, -0.77719, 0.00021, 409, 100,
 19:06:18.235,e8:da:bf:c6:3e:4f, 2015-01-01 00:24:33.825, -1.086, 0.007, -1.074, -0.977, -0.122, -11.353, , , , , , , 179.681, -0.764, -101.19, -78.300, 13.100, -69.807, 20.77, 0.0076, 0.62915, -0.77719, 0.00021, 409, 100,
 19:06:18.235,e8:da:bf:c6:3e:4f, 2015-01-01 00:24:33.825, -0.974, -0.009, -1.052, -2.014, 1.16, 3.662, , , , , , , 179.665, -0.769, -101.157, -78.300, 13.100, -69.807, 20.77, 0.0076, 0.62915, -0.77719, 0.00021, 409, 100,
 19:06:18.235,e8:da:bf:c6:3e:4f, 2015-01-01 00:24:33.825, -0.589, -0.044, -0.865, 0.122, 2.38, 19.653, , , , , , , 179.654, -0.791, -101.288, -78.300, 13.100, -69.807, 20.77, 0.0076, 0.62915, -0.77719, 0.00021, 409, 100,
 19:06:18.235,e8:da:bf:c6:3e:4f, 2015-01-01 00:24:33.825, -0.222, -0.039, -0.781, 2.93, 3.601, 28.076, , , , , , , 179.676, -0.818, -101.541, -78.300, 13.100, -69.807, 20.77, 0.0076, 0.62915, -0.77719, 0.00021, 409, 100,
 19:06:18.267,e8:da:bf:c6:3e:4f, 2015-01-01 00:24:33.825, 0.039, 0.005, -1.057, 0.549, 1.465, 32.471, , , , , , , 179.703, -0.851, -101.854, -78.300, 13.100, -69.807, 20.77, 0.0076, 0.62915, -0.77719, 0.00021, 409, 100,
 19:06:18.267,e8:da:bf:c6:3e:4f, 2015-01-01 00:24:33.825, 0.176, 0.031, -1.268, -3.235, 0.305, 31.677, , , , , , , 179.687, -0.862, -102.178, -78.300, 13.100, -69.807, 20.77, 0.0076, 0.62915, -0.77719, 0.00021, 409, 100,
 19:06:18.267,e8:da:bf:c6:3e:4f, 2015-01-01 00:24:33.825, 0.192, 0.013, -1.082, -3.113, 0.916, 26.55, , , , , , , 179.654, -0.868, -102.469, -78.300, 13.100, -69.807, 20.77, 0.0076, 0.62915, -0.77719, 0.00021, 409, 100,
 19:06:18.267,e8:da:bf:c6:3e:4f, 2015-01-01 00:24:33.825, 0.195, -0.013, -0.811, -0.061, 0.977, 22.217, , , , , , , 179.643, -0.879, -102.706, -78.300, 13.100, -69.807, 20.77, 0.0076, 0.62915, -0.77719, 0.00021, 409, 100,
 19:06:18.414,e8:da:bf:c6:3e:4f, 2015-01-01 00:24:33.825, 0.412, -0.012, -0.811, 1.831, 0.793, 24.353, , , , , , , 179.659, -0.89, -102.942, -78.300, 13.100, -69.807, 20.77, 0.0076, 0.62915, -0.77719, 0.00021, 409, 100,
 19:06:18.414,e8:da:bf:c6:3e:4f, 2015-01-01 00:24:33.825, 0.668, 0.024, -1.033, 0.427, -0.61, 18.86, , , , , , , 179.676, -0.895, -103.173, -78.300, 13.100, -69.807, 20.77, 0.0076, 0.62915, -0.77719, 0.00021, 409, 100,
 19:06:18.415,e8:da:bf:c6:3e:4f, 2015-01-01 00:24:33.825, 0.622, 0.046, -1.122, -2.075, -0.305, 2.38, , , , , , , 179.665, -0.89, -103.271, -78.300, 13.100, -69.807, 20.77, 0.0076, 0.62915, -0.77719, 0.00021, 409, 100,
 19:06:18.415,e8:da:bf:c6:3e:4f, 2015-01-01 00:24:33.825, 0.533, 0.028, -0.954, -0.671, -1.099, -5.249, , , , , , , 179.648, -0.884, -103.244, -78.300, 13.100, -69.807, 20.77, 0.0076, 0.62915, -0.77719, 0.00021, 409, 100,
 19:06:18.431,e8:da:bf:c6:3e:4f, 2015-01-01 00:24:33.825, 0.356, 0.016, -0.825, 1.709, -0.732, -13.672, , , , , , , 179.654, -0.868, -103.151, -78.300, 13.100, -69.807, 20.77, 0.0076, 0.62915, -0.77719, 0.00021, 409, 100,
 19:06:18.431,e8:da:bf:c6:3e:4f, 2015-01-01 00:24:33.825, 0.188, 0.019, -0.895, 2.075, -0.305, -18.25, , , , , , , 179.676, -0.862, -102.986, -78.300, 13.100, -69.807, 20.77, 0.0076, 0.62915, -0.77719, 0.00021, 409, 100,
 19:06:18.431,e8:da:bf:c6:3e:4f, 2015-01-01 00:24:33.825, 0.076, 0.024, -1.03, 0.854, -2.136, -21.118, , , , , , , 179.687, -0.851, -102.788, -78.300, 13.100, -69.807, 20.77, 0.0076, 0.62915, -0.77719, 0.00021, 409, 100,
 19:06:18.431,e8:da:bf:c6:3e:4f, 2015-01-01 00:24:33.825, -0.037, 0.015, -1.083, -0.732, -0.244, -24.353, , , , , , , 179.687, -0.835, -102.557, -78.300, 13.100, -69.807, 20.77, 0.0076, 0.62915, -0.77719, 0.00021, 409, 100,
 19:06:18.431,e8:da:bf:c6:3e:4f, 2015-01-01 00:24:33.825, -0.117, -0.004, -1.017, -0.549, 0.183, -23.499, , , , , , , 179.676, -0.835, -102.321, -78.300, 13.100, -69.807, 20.77, 0.0076, 0.62915, -0.77719, 0.00021, 409, 100,
 19:06:18.431,e8:da:bf:c6:3e:4f, 2015-01-01 00:24:33.825, -0.159, -0.008, -0.941, 0.488, -0.061, -20.264, , , , , , , 179.676, -0.835, -102.101, -78.300, 13.100, -69.807, 20.77, 0.0076, 0.62915, -0.77719, 0.00021, 409, 100,
 19:06:18.431,e8:da:bf:c6:3e:4f, 2015-01-01 00:24:33.825, -0.178, 0.003, -0.969, 0.549, -0.427, -15.747, , , , , , , 179.681, -0.829, -101.926, -78.300, 13.100, -69.807, 20.77, 0.0076, 0.62915, -0.77719, 0.00021, 409, 100,
 19:06:18.432,e8:da:bf:c6:3e:4f, 2015-01-01 00:24:33.825, -0.2, 0.012, -1.04, -0.488, -0.732, -11.902, , , , , , , 179.676, -0.824, -101.794, -78.300, 13.100, -69.807, 20.77, 0.0076, 0.62915, -0.77719, 0.00021, 409, 100,
 19:06:18.448,e8:da:bf:c6:3e:4f, 2015-01-01 00:24:33.825, -0.282, 0.004, -1.014, -0.793, -1.038, -10.315, , , , , , , 179.67, -0.813, -101.684, -78.300, 13.100, -69.807, 20.77, 0.00714, 0.63193, -0.77493, -0.00024, 409, 100,
 19:06:18.448,e8:da:bf:c6:3e:4f, 2015-01-01 00:24:33.825, -0.367, -0.006, -0.922, 0.183, -0.549, -6.47, , , , , , , 179.665, -0.807, -101.602, -78.300, 13.100, -69.807, 20.77, 0.00714, 0.63193, -0.77493, -0.00024, 409, 100,
 19:06:18.448,e8:da:bf:c6:3e:4f, 2015-01-01 00:24:33.825, -0.364, -0.003, -0.896, 1.343, 0.061, 0.305, , , , , , , 179.676, -0.802, -101.574, -78.300, 13.100, -69.807, 20.77, 0.00714, 0.63193, -0.77493, -0.00024, 409, 100,
 19:06:18.448,e8:da:bf:c6:3e:4f, 2015-01-01 00:24:33.825, -0.256, 0.01, -1.004, 0.488, 0.916, 6.714, , , , , , , 179.687, -0.807, -101.618, -78.300, 13.100, -69.807, 20.77, 0.00714, 0.63193, -0.77493, -0.00024, 409, 100,
 19:06:18.479,e8:da:bf:c6:3e:4f, 2015-01-01 00:24:33.825, -0.158, 0.014, -1.09, -1.221, 0.549, 10.498, , , , , , , 179.681, -0.818, -101.711, -78.300, 13.100, -69.807, 20.77, 0.00714, 0.63193, -0.77493, -0.00024, 409, 100,
 19:06:18.479,e8:da:bf:c6:3e:4f, 2015-01-01 00:24:33.825, -0.555, 0.012, -1.006, -0.916, -4.822, 5.981, , , , , , , 179.67, -0.797, -101.799, -78.300, 13.100, -69.807, 20.77, 0.00714, 0.63193, -0.77493, -0.00024, 409, 100,
 19:06:18.479,e8:da:bf:c6:3e:4f, 2015-01-01 00:24:33.825, -1.734, 0.006, -0.964, 1.526, -6.897, 6.836, , , , , , , 179.676, -0.736, -101.849, -78.300, 13.100, -69.807, 20.77, 0.00714, 0.63193, -0.77493, -0.00024, 409, 100,
 19:06:18.479,e8:da:bf:c6:3e:4f, 2015-01-01 00:24:33.825, -2.678, -0.036, -1.075, -0.793, -6.714, 40.588, , , , , , , 179.681, -0.665, -102.09, -78.300, 13.100, -69.807, 20.77, 0.00714, 0.63193, -0.77493, -0.00024, 409, 100,
 19:06:18.511,e8:da:bf:c6:3e:4f, 2015-01-01 00:24:34.180, -3.031, -0.128, -0.984, -1.099, -2.136, 84.412, , , , , , , 179.676, -0.626, -102.728, -78.300, 13.100, -69.807, 20.77, 0.00714, 0.63193, -0.77493, -0.00024, 409, 100,
 19:06:18.511,e8:da:bf:c6:3e:4f, 2015-01-01 00:24:34.180, -2.544, -0.263, -0.814, 0.488, 4.395, 134.277, , , , , , , 179.681, -0.648, -103.854, -78.300, 13.100, -69.807, 20.77, 0.00714, 0.63193, -0.77493, -0.00024, 409, 100,
 19:06:18.511,e8:da:bf:c6:3e:4f, 2015-01-01 00:24:34.180, -1.6, -0.374, -0.833, 0.488, 7.507, 169.373, , , , , , , 179.703, -0.72, -105.408, -78.300, 13.100, -69.807, 20.77, 0.00714, 0.63193, -0.77493, -0.00024, 409, 100,
 19:06:18.511,e8:da:bf:c6:3e:4f, 2015-01-01 00:24:34.180, -0.545, -0.438, -0.969, -0.977, 4.822, 190.857, , , , , , , 179.714, -0.802, -107.232, -78.300, 13.100, -69.807, 20.77, 0.00714, 0.63193, -0.77493, -0.00024, 409, 100,
 19:06:18.650,e8:da:bf:c6:3e:4f, 2015-01-01 00:24:34.180, 0.07, -0.426, -0.966, 0, 2.625, 194.092, , , , , , , 179.731, -0.846, -109.171, -78.300, 13.100, -69.807, 20.77, 0.00714, 0.63193, -0.77493, -0.00024, 409, 100,
 19:06:18.650,e8:da:bf:c6:3e:4f, 2015-01-01 00:24:34.180, 0.258, -0.4, -1.063, -0.427, 0.244, 191.162, , , , , , , 179.753, -0.868, -111.099, -78.300, 13.100, -69.807, 20.77, 0.00714, 0.63193, -0.77493, -0.00024, 409, 100,
 19:06:18.650,e8:da:bf:c6:3e:4f, 2015-01-01 00:24:34.180, 0.359, -0.387, -1.164, -2.93, 1.099, 188.782, , , , , , , 179.764, -0.879, -113, -78.300, 13.100, -69.807, 20.77, 0.00714, 0.63193, -0.77493, -0.00024, 409, 100,
 19:06:18.650,e8:da:bf:c6:3e:4f, 2015-01-01 00:24:34.180, 0.416, -0.388, -1.073, -3.601, -1.77, 181.946, , , , , , , 179.747, -0.89, -114.862, -78.300, 13.100, -69.807, 20.77, 0.00714, 0.63193, -0.77493, -0.00024, 409, 100,
 19:06:18.666,e8:da:bf:c6:3e:4f, 2015-01-01 00:24:34.180, 0.323, -0.387, -0.853, -1.221, -1.526, 171.509, , , , , , , 179.747, -0.879, -116.62, -78.300, 13.100, -69.807, 20.77, 0.00714, 0.63193, -0.77493, -0.00024, 409, 100,
 19:06:18.666,e8:da:bf:c6:3e:4f, 2015-01-01 00:24:34.180, 0.244, -0.373, -0.777, 1.587, -0.732, 169.556, , , , , , , 179.769, -0.879, -118.323, -78.300, 13.100, -69.807, 20.77, 0.00714, 0.63193, -0.77493, -0.00024, 409, 100,
 19:06:18.666,e8:da:bf:c6:3e:4f, 2015-01-01 00:24:34.180, 0.118, -0.341, -0.926, 1.465, -2.38, 164.795, , , , , , , 179.808, -0.868, -119.993, -78.300, 13.100, -69.807, 20.77, 0.00714, 0.63193, -0.77493, -0.00024, 409, 100,
 19:06:18.666,e8:da:bf:c6:3e:4f, 2015-01-01 00:24:34.180, 0.049, -0.325, -1.127, -0.793, -0.977, 164.49, , , , , , , 179.835, -0.857, -121.641, -78.300, 13.100, -69.807, 20.77, 0.00714, 0.63193, -0.77493, -0.00024, 409, 100,
 19:06:18.666,e8:da:bf:c6:3e:4f, 2015-01-01 00:24:34.180, 0.061, -0.331, -1.157, -2.686, -1.099, 165.833, , , , , , , 179.83, -0.851, -123.294, -78.300, 13.100, -69.807, 20.77, 0.00714, 0.63193, -0.77493, -0.00024, 409, 100,
 19:06:18.666,e8:da:bf:c6:3e:4f, 2015-01-01 00:24:34.180, 0.03, -0.346, -0.983, -1.892, -1.648, 163.33, , , , , , , 179.824, -0.851, -124.942, -78.300, 13.100, -69.807, 20.77, 0.00714, 0.63193, -0.77493, -0.00024, 409, 100,
 19:06:18.666,e8:da:bf:c6:3e:4f, 2015-01-01 00:24:34.180, -0.012, -0.35, -0.814, 0.916, -3.296, 160.706, , , , , , , 179.841, -0.829, -126.568, -78.300, 13.100, -69.807, 20.77, 0.00714, 0.63193, -0.77493, -0.00024, 409, 100,
 19:06:18.666,e8:da:bf:c6:3e:4f, 2015-01-01 00:24:34.180, -0.321, -0.329, -0.915, 1.465, -2.258, 155.823, , , , , , , 179.874, -0.807, -128.15, -78.300, 13.100, -69.807, 20.77, 0.00714, 0.63193, -0.77493, -0.00024, 409, 100,
 19:06:18.682,e8:da:bf:c6:3e:4f, 2015-01-01 00:24:34.180, -0.558, -0.331, -1.127, -0.732, -1.038, 163.818, , , , , , , 179.896, -0.791, -129.732, -78.300, 13.100, -69.807, 20.77, 0.00714, 0.63193, -0.77493, -0.00024, 409, 100,
 19:06:18.682,e8:da:bf:c6:3e:4f, 2015-01-01 00:24:34.180, -0.417, -0.38, -1.09, -2.93, -1.16, 183.411, , , , , , , 179.89, -0.791, -131.495, -78.300, 13.100, -69.807, 20.77, 0.00714, 0.63193, -0.77493, -0.00024, 409, 100,
 19:06:18.682,e8:da:bf:c6:3e:4f, 2015-01-01 00:24:34.180, -0.371, -0.427, -0.897, -0.671, 0, 182.678, , , , , , , 179.89, -0.78, -133.325, -78.300, 13.100, -69.807, 20.77, 0.00714, 0.63193, -0.77493, -0.00024, 409, 100,
 19:06:18.682,e8:da:bf:c6:3e:4f, 2015-01-01 00:24:34.180, -0.101, -0.462, -0.835, 0.854, 0.977, 194.458, , , , , , , 179.918, -0.802, -135.22, -78.300, 13.100, -69.807, 20.77, 0.00714, 0.63193, -0.77493, -0.00024, 409, 100,
 19:06:18.714,e8:da:bf:c6:3e:4f, 2015-01-01 00:24:34.180, 0.085, -0.45, -0.998, -0.061, 0.305, 194.153, , , , , , , 179.94, -0.807, -137.17, -78.300, 13.100, -69.807, 20.77, 0.00714, 0.63193, -0.77493, -0.00024, 409, 100,
 19:06:18.714,e8:da:bf:c6:3e:4f, 2015-01-01 00:24:34.180, 0.127, -0.432, -1.141, -2.319, -0.427, 190.491, , , , , , , 179.951, -0.813, -139.092, -78.300, 13.100, -69.807, 20.77, 0.00714, 0.63193, -0.77493, -0.00024, 409, 100,
 19:06:18.714,e8:da:bf:c6:3e:4f, 2015-01-01 00:24:34.180, 0.095, -0.438, -1.036, -2.563, -0.793, 188.049, , , , , , , 179.94, -0.807, -140.988, -78.300, 13.100, -69.807, 20.77, 0.00714, 0.63193, -0.77493, -0.00024, 409, 100,
 19:06:18.714,e8:da:bf:c6:3e:4f, 2015-01-01 00:24:34.180, 0.067, -0.453, -0.852, 0, -0.977, 186.707, , , , , , , 179.951, -0.807, -142.861, -78.300, 13.100, -69.807, 20.77, 0.00714, 0.63193, -0.77493, -0.00024, 409, 100,
 19:06:18.746,e8:da:bf:c6:3e:4f, 2015-01-01 00:24:34.180, 0.076, -0.448, -0.87, 1.16, -0.916, 186.951, , , , , , , 179.978, -0.791, -144.734, -78.300, 13.100, -69.807, 20.77, 0.00714, 0.63193, -0.77493, -0.00024, 409, 100,
 19:06:18.746,e8:da:bf:c6:3e:4f, 2015-01-01 00:24:34.180, 0.092, -0.426, -1.046, -0.549, -1.038, 186.218, , , , , , , -180, -0.791, -146.602, -78.300, 13.100, -69.807, 20.77, 0.00714, 0.63193, -0.77493, -0.00024, 409, 100,
 19:06:18.746,e8:da:bf:c6:3e:4f, 2015-01-01 00:24:34.180, 0.081, -0.415, -1.116, -2.197, -1.099, 184.692, , , , , , , -179.995, -0.775, -148.458, -78.300, 13.100, -69.807, 20.77, 0.00714, 0.63193, -0.77493, -0.00024, 409, 100,
 19:06:18.746,e8:da:bf:c6:3e:4f, 2015-01-01 00:24:34.180, 0.057, -0.426, -1.009, -1.953, -1.282, 183.716, , , , , , , -180, -0.769, -150.298, -78.300, 13.100, -69.807, 20.77, 0.00714, 0.63193, -0.77493, -0.00024, 409, 100,
 19:06:18.907,e8:da:bf:c6:3e:4f, 2015-01-01 00:24:34.180, 0.062, -0.442, -0.875, 0, -1.282, 183.96, , , , , , , -179.989, -0.753, -152.139, -78.300, 13.100, -69.807, 20.77, 0.00507, 0.22507, -0.97427, -0.00034, 409, 100,
 19:06:18.907,e8:da:bf:c6:3e:4f, 2015-01-01 00:24:34.540, 0.086, -0.428, -0.91, 0.549, -0.916, 183.594, , , , , , , -179.967, -0.747, -153.979, -78.300, 13.100, -69.807, 20.77, 0.00507, 0.22507, -0.97427, -0.00034, 409, 100,
 19:06:18.907,e8:da:bf:c6:3e:4f, 2015-01-01 00:24:34.540, 0.174, -0.395, -1.033, -0.977, 0.977, 184.265, , , , , , , -179.951, -0.742, -155.819, -78.300, 13.100, -69.807, 20.77, 0.00507, 0.22507, -0.97427, -0.00034, 409, 100,
 19:06:18.907,e8:da:bf:c6:3e:4f, 2015-01-01 00:24:34.540, 0.504, -0.386, -1.006, -0.854, 0.427, 186.951, , , , , , , -179.945, -0.758, -157.681, -78.300, 13.100, -69.807, 20.77, 0.00507, 0.22507, -0.97427, -0.00034, 409, 100,
 19:06:18.923,e8:da:bf:c6:3e:4f, 2015-01-01 00:24:34.540, 1, -0.366, -0.953, 0.122, -0.671, 178.833, , , , , , , -179.929, -0.747, -159.516, -78.300, 13.100, -69.807, 20.77, 0.00507, 0.22507, -0.97427, -0.00034, 409, 100,
 19:06:18.923,e8:da:bf:c6:3e:4f, 2015-01-01 00:24:34.540, 2.028, -0.333, -1.018, -0.122, 2.258, 168.884, , , , , , , -179.907, -0.764, -161.252, -78.300, 13.100, -69.807, 20.77, 0.00507, 0.22507, -0.97427, -0.00034, 409, 100,
 19:06:18.923,e8:da:bf:c6:3e:4f, 2015-01-01 00:24:34.540, 3.155, -0.25, -1.06, -0.671, 1.587, 140.259, , , , , , , -179.896, -0.775, -162.817, -78.300, 13.100, -69.807, 20.77, 0.00507, 0.22507, -0.97427, -0.00034, 409, 100,
 19:06:18.923,e8:da:bf:c6:3e:4f, 2015-01-01 00:24:34.540, 3.556, -0.125, -0.983, -0.793, -0.305, 83.74, , , , , , , -179.896, -0.786, -163.916, -78.300, 13.100, -69.807, 20.77, 0.00507, 0.22507, -0.97427, -0.00034, 409, 100,
 19:06:18.923,e8:da:bf:c6:3e:4f, 2015-01-01 00:24:34.540, 3.202, -0.017, -0.89, 0.305, -4.15, 31.189, , , , , , , -179.89, -0.758, -164.465, -78.300, 13.100, -69.807, 20.77, 0.00507, 0.22507, -0.97427, -0.00034, 409, 100,
 19:06:18.923,e8:da:bf:c6:3e:4f, 2015-01-01 00:24:34.540, 2.053, 0.041, -0.901, 0.977, -6.531, -17.09, , , , , , , -179.879, -0.703, -164.504, -78.300, 13.100, -69.807, 20.77, 0.00507, 0.22507, -0.97427, -0.00034, 409, 100,
 19:06:18.923,e8:da:bf:c6:3e:4f, 2015-01-01 00:24:34.540, 0.929, 0.027, -0.966, 0.366, -0.61, -45.41, , , , , , , -179.879, -0.659, -164.158, -78.300, 13.100, -69.807, 20.77, 0.00507, 0.22507, -0.97427, -0.00034, 409, 100,
 19:06:18.923,e8:da:bf:c6:3e:4f, 2015-01-01 00:24:34.540, 0.103, 0.018, -0.983, 1.221, -2.258, -58.96, , , , , , , -179.874, -0.643, -163.63, -78.300, 13.100, -69.807, 20.77, 0.00507, 0.22507, -0.97427, -0.00034, 409, 100,
 19:06:18.923,e8:da:bf:c6:3e:4f, 2015-01-01 00:24:34.540, -0.494, 0.005, -1.082, -2.136, 0.061, -60.852, , , , , , , -179.879, -0.643, -163.015, -78.300, 13.100, -69.807, 20.77, 0.00507, 0.22507, -0.97427, -0.00034, 409, 100,
 19:06:18.924,e8:da:bf:c6:3e:4f, 2015-01-01 00:24:34.540, -0.854, -0.018, -1.117, -2.563, -5.493, -46.997, , , , , , , -179.912, -0.61, -162.477, -78.300, 13.100, -69.807, 20.77, 0.00507, 0.22507, -0.97427, -0.00034, 409, 100,
 19:06:18.924,e8:da:bf:c6:3e:4f, 2015-01-01 00:24:34.540, -1.207, -0.035, -1.047, -2.197, -3.296, -33.386, , , , , , , -179.94, -0.566, -162.087, -78.300, 13.100, -69.807, 20.77, 0.00507, 0.22507, -0.97427, -0.00034, 409, 100,
 19:06:18.924,e8:da:bf:c6:3e:4f, 2015-01-01 00:24:34.540, -1.27, -0.058, -0.866, -0.427, 0, -12.024, , , , , , , -179.956, -0.549, -161.862, -78.300, 13.100, -69.807, 20.77, 0.00507, 0.22507, -0.97427, -0.00034, 409, 100,
 19:06:18.956,e8:da:bf:c6:3e:4f, 2015-01-01 00:24:34.540, -1.023, -0.055, -0.76, 2.075, 2.502, 9.155, , , , , , , -179.945, -0.566, -161.867, -78.300, 13.100, -69.807, 20.77, 0.00507, 0.22507, -0.97427, -0.00034, 409, 100,
 19:06:18.956,e8:da:bf:c6:3e:4f, 2015-01-01 00:24:34.540, -0.54, -0.028, -0.852, 2.686, 4.333, 23.56, , , , , , , -179.918, -0.604, -162.043, -78.300, 13.100, -69.807, 20.77, 0.00507, 0.22507, -0.97427, -0.00034, 409, 100,
 19:06:18.956,e8:da:bf:c6:3e:4f, 2015-01-01 00:24:34.540, -0.153, 0, -1.043, 0.793, 4.7, 31.372, , , , , , , -179.896, -0.648, -162.334, -78.300, 13.100, -69.807, 20.77, 0.00507, 0.22507, -0.97427, -0.00034, 409, 100,
 19:06:18.956,e8:da:bf:c6:3e:4f, 2015-01-01 00:24:34.540, 0.041, -0.001, -1.159, -0.916, 2.075, 31.128, , , , , , , -179.896, -0.687, -162.653, -78.300, 13.100, -69.807, 20.77, 0.00507, 0.22507, -0.97427, -0.00034, 409, 100,
