Time,Device name,Chip Time(),Acceleration X(g),Acceleration Y(g),Acceleration Z(g),Angular velocity X(°/s),Angular velocity Y(°/s),Angular velocity Z(°/s),ShiftX(mm),ShiftY(mm),ShiftZ(mm),SpeedX(mm/s),SpeedY(mm/s),SpeedZ(mm/s),Angle X(°),Angle Y(°),Angle Z(°),Magnetic field X(ʯt),Magnetic field Y(ʯt),Magnetic field Z(ʯt),Temperature(℃),Quaternions 0(),Quaternions 1(),Quaternions 2(),Quaternions 3(),Raw power(),Power Percent(%)()
 19:40:19.037,e8:da:bf:c6:3e:4f, 2015-01-01 00:58:20.225, 0.01, 0.007, -0.981, 0, 0, -0.183, , , , , , , 179.786, -0.802, -128.666, -78.300, 13.100, -69.807, 20.47, 0.00641, 0.43304, -0.90131, -0.00098, 406, 100,
 19:40:19.037,e8:da:bf:c6:3e:4f, 2015-01-01 00:58:20.225, 0.01, 0.007, -0.981, 0, 0, -0.183, , , , , , , 179.786, -0.802, -128.666, -78.300, 13.100, -69.807, 20.47, 0.00641, 0.43304, -0.90131, -0.00098, 406, 100,
 19:40:19.037,e8:da:bf:c6:3e:4f, 2015-01-01 00:58:20.225, 0.01, 0.007, -0.981, 0, 0, -0.183, , , , , , , 179.786, -0.802, -128.666, -78.300, 13.100, -69.807, 20.47, 0.00641, 0.43304, -0.90131, -0.00098, 406, 100,
 19:40:19.038,e8:da:bf:c6:3e:4f, 2015-01-01 00:58:20.225, 0.01, 0.007, -0.981, 0, 0, -0.183, , , , , , , 179.786, -0.802, -128.666, -78.300, 13.100, -69.807, 20.47, 0.00641, 0.43304, -0.90131, -0.00098, 406, 100,
 19:40:19.038,e8:da:bf:c6:3e:4f, 2015-01-01 00:58:20.225, 0.01, 0.007, -0.981, 0, 0, -0.183, , , , , , , 179.786, -0.802, -128.666, -78.300, 13.100, -69.807, 20.47, 0.00641, 0.43304, -0.90131, -0.00098, 406, 100,
 19:40:19.038,e8:da:bf:c6:3e:4f, 2015-01-01 00:58:20.225, 0.01, 0.007, -0.981, 0, 0, -0.183, , , , , , , 179.786, -0.802, -128.666, -78.300, 13.100, -69.807, 20.47, 0.00641, 0.43304, -0.90131, -0.00098, 406, 100,
 19:40:19.038,e8:da:bf:c6:3e:4f, 2015-01-01 00:58:20.225, 0.01, 0.007, -0.981, 0, 0, -0.183, , , , , , , 179.786, -0.802, -128.666, -78.300, 13.100, -69.807, 20.47, 0.00641, 0.43304, -0.90131, -0.00098, 406, 100,
 19:40:19.038,e8:da:bf:c6:3e:4f, 2015-01-01 00:58:20.225, 0.01, 0.007, -0.981, 0, 0, -0.183, , , , , , , 179.786, -0.802, -128.666, -78.300, 13.100, -69.807, 20.47, 0.00641, 0.43304, -0.90131, -0.00098, 406, 100,
 19:40:19.054,e8:da:bf:c6:3e:4f, 2015-01-01 00:58:20.225, 0.01, 0.007, -0.981, 0, 0, -0.183, , , , , , , 179.786, -0.802, -128.666, -78.300, 13.100, -69.807, 20.47, 0.00641, 0.43304, -0.90131, -0.00098, 406, 100,
 19:40:19.054,e8:da:bf:c6:3e:4f, 2015-01-01 00:58:20.225, 0.01, 0.007, -0.981, 0, 0, -0.183, , , , , , , 179.786, -0.802, -128.666, -78.300, 13.100, -69.807, 20.47, 0.00641, 0.43304, -0.90131, -0.00098, 406, 100,
 19:40:19.054,e8:da:bf:c6:3e:4f, 2015-01-01 00:58:20.225, 0.009, 0.007, -0.981, 0, 0, -0.183, , , , , , , 179.786, -0.802, -128.666, -78.300, 13.100, -69.807, 20.47, 0.00641, 0.43304, -0.90131, -0.00098, 406, 100,
 19:40:19.054,e8:da:bf:c6:3e:4f, 2015-01-01 00:58:20.225, 0.01, 0.007, -0.981, 0, 0, -0.183, , , , , , , 179.786, -0.802, -128.666, -78.300, 13.100, -69.807, 20.47, 0.00641, 0.43304, -0.90131, -0.00098, 406, 100,
 19:40:19.071,e8:da:bf:c6:3e:4f, 2015-01-01 00:58:20.225, 0.01, 0.007, -0.981, 0, 0, -0.183, , , , , , , 179.786, -0.802, -128.666, -78.300, 13.100, -69.807, 20.47, 0.00641, 0.43304, -0.90131, -0.00098, 406, 100,
 19:40:19.071,e8:da:bf:c6:3e:4f, 2015-01-01 00:58:20.225, 0.01, 0.007, -0.981, 0, 0, -0.183, , , , , , , 179.786, -0.802, -128.666, -78.300, 13.100, -69.807, 20.47, 0.00641, 0.43304, -0.90131, -0.00098, 406, 100,
 19:40:19.072,e8:da:bf:c6:3e:4f, 2015-01-01 00:58:20.225, 0.011, 0.007, -0.981, 0, 0, -0.183, , , , , , , 179.786, -0.802, -128.666, -78.300, 13.100, -69.807, 20.47, 0.00641, 0.43304, -0.90131, -0.00098, 406, 100,
 19:40:19.072,e8:da:bf:c6:3e:4f, 2015-01-01 00:58:20.225, 0.009, 0.007, -0.981, 0, 0, -0.183, , , , , , , 179.786, -0.802, -128.666, -78.300, 13.100, -69.807, 20.47, 0.00641, 0.43304, -0.90131, -0.00098, 406, 100,
 19:40:19.104,e8:da:bf:c6:3e:4f, 2015-01-01 00:58:20.225, 0.009, 0.007, -0.981, 0, 0, -0.183, , , , , , , 179.786, -0.802, -128.666, -78.300, 13.100, -69.807, 20.47, 0.00641, 0.43304, -0.90131, -0.00098, 406, 100,
 19:40:19.104,e8:da:bf:c6:3e:4f, 2015-01-01 00:58:20.225, 0.01, 0.007, -0.981, 0, 0, -0.183, , , , , , , 179.786, -0.802, -128.666, -78.300, 13.100, -69.807, 20.47, 0.00641, 0.43304, -0.90131, -0.00098, 406, 100,
 19:40:19.104,e8:da:bf:c6:3e:4f, 2015-01-01 00:58:20.225, 0.01, 0.007, -0.981, 0, 0, -0.183, , , , , , , 179.786, -0.802, -128.666, -78.300, 13.100, -69.807, 20.47, 0.00641, 0.43304, -0.90131, -0.00098, 406, 100,
 19:40:19.104,e8:da:bf:c6:3e:4f, 2015-01-01 00:58:20.225, 0.011, 0.007, -0.981, 0, 0, -0.183, , , , , , , 179.786, -0.802, -128.666, -78.300, 13.100, -69.807, 20.47, 0.00641, 0.43304, -0.90131, -0.00098, 406, 100,
 19:40:19.284,e8:da:bf:c6:3e:4f, 2015-01-01 00:58:20.225, 0.011, 0.007, -0.981, 0, 0, -0.183, , , , , , , 179.786, -0.802, -128.666, -78.300, 13.100, -69.807, 20.47, 0.00641, 0.43304, -0.90131, -0.00098, 406, 100,
 19:40:19.284,e8:da:bf:c6:3e:4f, 2015-01-01 00:58:20.225, 0.01, 0.007, -0.98, 0, 0, -0.183, , , , , , , 179.786, -0.802, -128.666, -78.300, 13.100, -69.807, 20.47, 0.00641, 0.43304, -0.90131, -0.00098, 406, 100,
 19:40:19.284,e8:da:bf:c6:3e:4f, 2015-01-01 00:58:20.225, 0.011, 0.007, -0.981, 0, 0, -0.183, , , , , , , 179.786, -0.802, -128.666, -78.300, 13.100, -69.807, 20.47, 0.00641, 0.43304, -0.90131, -0.00098, 406, 100,
 19:40:19.285,e8:da:bf:c6:3e:4f, 2015-01-01 00:58:20.225, 0.01, 0.007, -0.981, 0, 0, -0.183, , , , , , , 179.786, -0.802, -128.666, -78.300, 13.100, -69.807, 20.47, 0.00641, 0.43304, -0.90131, -0.00098, 406, 100,
 19:40:19.301,e8:da:bf:c6:3e:4f, 2015-01-01 00:58:20.225, 0.01, 0.007, -0.981, 0, 0, -0.183, , , , , , , 179.786, -0.802, -128.666, -78.300, 13.100, -69.807, 20.47, 0.00641, 0.43304, -0.90131, -0.00098, 406, 100,
 19:40:19.301,e8:da:bf:c6:3e:4f, 2015-01-01 00:58:20.225, 0.01, 0.007, -0.981, 0, 0, -0.183, , , , , , , 179.786, -0.802, -128.666, -78.300, 13.100, -69.807, 20.47, 0.00641, 0.43304, -0.90131, -0.00098, 406, 100,
 19:40:19.301,e8:da:bf:c6:3e:4f, 2015-01-01 00:58:20.225, 0.011, 0.007, -0.981, 0, 0, -0.183, , , , , , , 179.786, -0.802, -128.666, -78.300, 13.100, -69.807, 20.47, 0.00641, 0.43304, -0.90131, -0.00098, 406, 100,
 19:40:19.301,e8:da:bf:c6:3e:4f, 2015-01-01 00:58:20.225, 0.011, 0.007, -0.981, 0, 0, -0.183, , , , , , , 179.786, -0.802, -128.666, -78.300, 13.100, -69.807, 20.47, 0.00641, 0.43304, -0.90131, -0.00098, 406, 100,
 19:40:19.301,e8:da:bf:c6:3e:4f, 2015-01-01 00:58:20.225, 0.01, 0.007, -0.981, 0, 0, -0.183, , , , , , , 179.786, -0.802, -128.666, -78.300, 13.100, -69.807, 20.47, 0.00641, 0.43304, -0.90131, -0.00098, 406, 100,
 19:40:19.301,e8:da:bf:c6:3e:4f, 2015-01-01 00:58:20.225, 0.01, 0.007, -0.981, 0, 0, -0.183, , , , , , , 179.786, -0.802, -128.666, -78.300, 13.100, -69.807, 20.47, 0.00641, 0.43304, -0.90131, -0.00098, 406, 100,
 19:40:19.302,e8:da:bf:c6:3e:4f, 2015-01-01 00:58:20.225, 0.01, 0.007, -0.981, 0, 0, -0.183, , , , , , , 179.786, -0.802, -128.666, -78.300, 13.100, -69.807, 20.47, 0.00641, 0.43304, -0.90131, -0.00098, 406, 100,
 19:40:19.302,e8:da:bf:c6:3e:4f, 2015-01-01 00:58:20.225, 0.01, 0.007, -0.981, 0, 0, -0.122, , , , , , , 179.786, -0.802, -128.666, -78.300, 13.100, -69.807, 20.47, 0.00641, 0.43304, -0.90131, -0.00098, 406, 100,
 19:40:19.302,e8:da:bf:c6:3e:4f, 2015-01-01 00:58:20.225, 0.01, 0.007, -0.981, 0, 0, -0.183, , , , , , , 179.786, -0.802, -128.666, -78.300, 13.100, -69.807, 20.47, 0.00641, 0.43304, -0.90131, -0.00098, 406, 100,
 19:40:19.302,e8:da:bf:c6:3e:4f, 2015-01-01 00:58:20.225, 0.01, 0.007, -0.981, 0, 0, -0.183, , , , , , , 179.786, -0.802, -128.666, -78.300, 13.100, -69.807, 20.47, 0.00641, 0.43304, -0.90131, -0.00098, 406, 100,
 19:40:19.302,e8:da:bf:c6:3e:4f, 2015-01-01 00:58:20.225, 0.01, 0.007, -0.981, 0, 0, -0.183, , , , , , , 179.786, -0.802, -128.666, -78.300, 13.100, -69.807, 20.47, 0.00641, 0.43304, -0.90131, -0.00098, 406, 100,
 19:40:19.303,e8:da:bf:c6:3e:4f, 2015-01-01 00:58:20.225, 0.01, 0.007, -0.981, 0, 0, -0.183, , , , , , , 179.786, -0.802, -128.666, -78.300, 13.100, -69.807, 20.47, 0.00641, 0.43304, -0.90131, -0.00098, 406, 100,
 19:40:19.319,e8:da:bf:c6:3e:4f, 2015-01-01 00:58:20.225, 0.01, 0.007, -0.981, 0, 0, -0.183, , , , , , , 179.786, -0.802, -128.666, -78.300, 13.100, -69.807, 20.47, 0.00641, 0.43304, -0.90131, -0.00098, 406, 100,
 19:40:19.319,e8:da:bf:c6:3e:4f, 2015-01-01 00:58:20.225, 0.01, 0.007, -0.981, 0, 0, -0.183, , , , , , , 179.786, -0.802, -128.666, -78.300, 13.100, -69.807, 20.47, 0.00641, 0.43304, -0.90131, -0.00098, 406, 100,
 19:40:19.319,e8:da:bf:c6:3e:4f, 2015-01-01 00:58:20.225, 0.01, 0.007, -0.98, 0, 0, -0.183, , , , , , , 179.786, -0.802, -128.666, -78.300, 13.100, -69.807, 20.47, 0.00641, 0.43304, -0.90131, -0.00098, 406, 100,
 19:40:19.319,e8:da:bf:c6:3e:4f, 2015-01-01 00:58:20.225, 0.01, 0.007, -0.98, 0, 0, -0.183, , , , , , , 179.786, -0.802, -128.666, -78.300, 13.100, -69.807, 20.47, 0.00641, 0.43304, -0.90131, -0.00098, 406, 100,
 19:40:19.351,e8:da:bf:c6:3e:4f, 2015-01-01 00:58:20.580, 0.011, 0.007, -0.981, 0, 0, -0.183, , , , , , , 179.786, -0.802, -128.666, -78.300, 13.100, -69.807, 20.47, 0.00641, 0.43304, -0.90131, -0.00098, 406, 100,
 19:40:19.351,e8:da:bf:c6:3e:4f, 2015-01-01 00:58:20.580, 0.01, 0.007, -0.981, 0, 0, -0.183, , , , , , , 179.786, -0.802, -128.666, -78.300, 13.100, -69.807, 20.47, 0.00641, 0.43304, -0.90131, -0.00098, 406, 100,
 19:40:19.351,e8:da:bf:c6:3e:4f, 2015-01-01 00:58:20.580, 0.011, 0.007, -0.981, 0, 0, -0.183, , , , , , , 179.786, -0.802, -128.666, -78.300, 13.100, -69.807, 20.47, 0.00641, 0.43304, -0.90131, -0.00098, 406, 100,
 19:40:19.351,e8:da:bf:c6:3e:4f, 2015-01-01 00:58:20.580, 0.01, 0.007, -0.98, 0, 0, -0.183, , , , , , , 179.786, -0.802, -128.666, -78.300, 13.100, -69.807, 20.47, 0.00641, 0.43304, -0.90131, -0.00098, 406, 100,
 19:40:19.537,e8:da:bf:c6:3e:4f, 2015-01-01 00:58:20.580, 0.01, 0.007, -0.98, 0, 0, -0.183, , , , , , , 179.786, -0.802, -128.666, -78.300, 13.100, -69.807, 20.47, 0.00641, 0.43304, -0.90131, -0.00098, 406, 100,
 19:40:19.538,e8:da:bf:c6:3e:4f, 2015-01-01 00:58:20.580, 0.01, 0.007, -0.982, 0, 0, -0.183, , , , , , , 179.786, -0.802, -128.666, -78.300, 13.100, -69.807, 20.47, 0.00641, 0.43304, -0.90131, -0.00098, 406, 100,
 19:40:19.538,e8:da:bf:c6:3e:4f, 2015-01-01 00:58:20.580, 0.01, 0.007, -0.981, 0, 0, -0.183, , , , , , , 179.786, -0.802, -128.666, -78.300, 13.100, -69.807, 20.47, 0.00641, 0.43304, -0.90131, -0.00098, 406, 100,
 19:40:19.538,e8:da:bf:c6:3e:4f, 2015-01-01 00:58:20.580, 0.011, 0.007, -0.981, 0, 0, -0.183, , , , , , , 179.786, -0.802, -128.666, -78.300, 13.100, -69.807, 20.47, 0.00641, 0.43304, -0.90131, -0.00098, 406, 100,
 19:40:19.555,e8:da:bf:c6:3e:4f, 2015-01-01 00:58:20.580, 0.01, 0.007, -0.981, 0, 0, -0.183, , , , , , , 179.786, -0.802, -128.666, -78.300, 13.100, -69.807, 20.47, 0.00641, 0.43304, -0.90131, -0.00098, 406, 100,
 19:40:19.555,e8:da:bf:c6:3e:4f, 2015-01-01 00:58:20.580, 0.009, 0.007, -0.98, 0, 0, -0.183, , , , , , , 179.786, -0.802, -128.666, -78.300, 13.100, -69.807, 20.47, 0.00641, 0.43304, -0.90131, -0.00098, 406, 100,
 19:40:19.555,e8:da:bf:c6:3e:4f, 2015-01-01 00:58:20.580, 0.01, 0.007, -0.981, 0, 0, -0.183, , , , , , , 179.786, -0.802, -128.666, -78.300, 13.100, -69.807, 20.47, 0.00641, 0.43304, -0.90131, -0.00098, 406, 100,
 19:40:19.556,e8:da:bf:c6:3e:4f, 2015-01-01 00:58:20.580, 0.011, 0.007, -0.981, 0, 0, -0.183, , , , , , , 179.786, -0.802, -128.666, -78.300, 13.100, -69.807, 20.47, 0.00641, 0.43304, -0.90131, -0.00098, 406, 100,
 19:40:19.556,e8:da:bf:c6:3e:4f, 2015-01-01 00:58:20.580, 0.011, 0.007, -0.981, 0, 0, -0.183, , , , , , , 179.786, -0.802, -128.666, -78.300, 13.100, -69.807, 20.47, 0.00641, 0.43304, -0.90131, -0.00098, 406, 100,
 19:40:19.556,e8:da:bf:c6:3e:4f, 2015-01-01 00:58:20.580, 0.011, 0.007, -0.981, 0, 0, -0.183, , , , , , , 179.786, -0.802, -128.666, -78.300, 13.100, -69.807, 20.47, 0.00641, 0.43304, -0.90131, -0.00098, 406, 100,
 19:40:19.557,e8:da:bf:c6:3e:4f, 2015-01-01 00:58:20.580, 0.009, 0.007, -0.981, 0, 0, -0.183, , , , , , , 179.786, -0.802, -128.666, -78.300, 13.100, -69.807, 20.47, 0.00641, 0.43304, -0.90131, -0.00098, 406, 100,
 19:40:19.557,e8:da:bf:c6:3e:4f, 2015-01-01 00:58:20.580, 0.01, 0.007, -0.98, 0, -0.061, -0.183, , , , , , , 179.786, -0.802, -128.666, -78.300, 13.100, -69.807, 20.47, 0.00641, 0.43304, -0.90131, -0.00098, 406, 100,
 19:40:19.557,e8:da:bf:c6:3e:4f, 2015-01-01 00:58:20.580, 0.01, 0.007, -0.981, 0, 0, -0.183, , , , , , , 179.786, -0.802, -128.666, -78.300, 13.100, -69.807, 20.47, 0.00641, 0.43304, -0.90131, -0.00098, 406, 100,
 19:40:19.557,e8:da:bf:c6:3e:4f, 2015-01-01 00:58:20.580, 0.01, 0.007, -0.98, 0, 0, -0.183, , , , , , , 179.786, -0.802, -128.666, -78.300, 13.100, -69.807, 20.47, 0.00641, 0.43304, -0.90131, -0.00098, 406, 100,
 19:40:19.558,e8:da:bf:c6:3e:4f, 2015-01-01 00:58:20.580, 0.01, 0.007, -0.98, 0, 0, -0.183, , , , , , , 179.786, -0.802, -128.666, -78.300, 13.100, -69.807, 20.47, 0.00641, 0.43304, -0.90131, -0.00098, 406, 100,
 19:40:19.558,e8:da:bf:c6:3e:4f, 2015-01-01 00:58:20.580, 0.01, 0.007, -0.981, 0, 0, -0.183, , , , , , , 179.786, -0.802, -128.666, -78.300, 13.100, -69.807, 20.47, 0.00641, 0.43304, -0.90131, -0.00098, 406, 100,
 19:40:19.558,e8:da:bf:c6:3e:4f, 2015-01-01 00:58:20.580, 0.01, 0.007, -0.981, 0, 0, -0.183, , , , , , , 179.786, -0.802, -128.666, -78.300, 13.100, -69.807, 20.47, 0.00641, 0.43304, -0.90131, -0.00098, 406, 100,
 19:40:19.559,e8:da:bf:c6:3e:4f, 2015-01-01 00:58:20.580, 0.01, 0.007, -0.98, 0, 0, -0.183, , , , , , , 179.786, -0.802, -128.666, -78.300, 13.100, -69.807, 20.47, 0.00641, 0.43304, -0.90131, -0.00098, 406, 100,
 19:40:19.559,e8:da:bf:c6:3e:4f, 2015-01-01 00:58:20.580, 0.009, 0.007, -0.981, 0, 0, -0.183, , , , , , , 179.786, -0.802, -128.666, -78.300, 13.100, -69.807, 20.47, 0.00641, 0.43304, -0.90131, -0.00098, 406, 100,
 19:40:19.559,e8:da:bf:c6:3e:4f, 2015-01-01 00:58:20.580, 0.009, 0.007, -0.98, 0, 0, -0.183, , , , , , , 179.786, -0.802, -128.666, -78.300, 13.100, -69.807, 20.47, 0.00641, 0.43304, -0.90131, -0.00098, 406, 100,
 19:40:19.576,e8:da:bf:c6:3e:4f, 2015-01-01 00:58:20.580, 0.01, 0.007, -0.981, 0, 0, -0.183, , , , , , , 179.786, -0.802, -128.666, -78.300, 13.100, -69.807, 20.47, 0.00641, 0.43304, -0.90131, -0.00098, 406, 100,
 19:40:19.576,e8:da:bf:c6:3e:4f, 2015-01-01 00:58:20.580, 0.01, 0.007, -0.981, 0, 0, -0.183, , , , , , , 179.786, -0.802, -128.666, -78.300, 13.100, -69.807, 20.47, 0.00641, 0.43304, -0.90131, -0.00098, 406, 100,
 19:40:19.576,e8:da:bf:c6:3e:4f, 2015-01-01 00:58:20.580, 0.01, 0.007, -0.98, 0, 0, -0.183, , , , , , , 179.786, -0.802, -128.666, -78.300, 13.100, -69.807, 20.47, 0.00641, 0.43304, -0.90131, -0.00098, 406, 100,
 19:40:19.577,e8:da:bf:c6:3e:4f, 2015-01-01 00:58:20.580, 0.01, 0.007, -0.981, 0, 0, -0.122, , , , , , , 179.786, -0.802, -128.666, -78.300, 13.100, -69.807, 20.47, 0.00641, 0.43304, -0.90131, -0.00098, 406, 100,
 19:40:19.730,e8:da:bf:c6:3e:4f, 2015-01-01 00:58:20.580, 0.011, 0.007, -0.981, 0, 0, -0.122, , , , , , , 179.786, -0.802, -128.666, -78.300, 13.100, -69.807, 20.47, 0.00638, 0.43304, -0.90131, -0.00098, 406, 100,
 19:40:19.730,e8:da:bf:c6:3e:4f, 2015-01-01 00:58:20.940, 0.033, 0.006, -0.98, 0, 0, -0.183, , , , , , , 179.786, -0.802, -128.666, -78.300, 13.100, -69.807, 20.47, 0.00638, 0.43304, -0.90131, -0.00098, 406, 100,
 19:40:19.731,e8:da:bf:c6:3e:4f, 2015-01-01 00:58:20.940, 0.465, 0.001, -0.979, 0.061, 5.798, 5.554, , , , , , , 179.786, -0.824, -128.683, -78.300, 13.100, -69.807, 20.47, 0.00638, 0.43304, -0.90131, -0.00098, 406, 100,
 19:40:19.731,e8:da:bf:c6:3e:4f, 2015-01-01 00:58:20.940, 2.113, 0.011, -1.052, 0.793, 0.854, 15.747, , , , , , , 179.791, -0.873, -128.82, -78.300, 13.100, -69.807, 20.47, 0.00638, 0.43304, -0.90131, -0.00098, 406, 100,
 19:40:19.747,e8:da:bf:c6:3e:4f, 2015-01-01 00:58:20.940, 3.044, 0.055, -1.085, -0.488, 0.854, -35.706, , , , , , , 179.797, -0.862, -128.743, -78.300, 13.100, -69.807, 20.47, 0.00638, 0.43304, -0.90131, -0.00098, 406, 100,
 19:40:19.747,e8:da:bf:c6:3e:4f, 2015-01-01 00:58:20.940, 3.425, 0.012, -0.951, -1.099, 0.977, -81.543, , , , , , , 179.775, -0.879, -128.106, -78.300, 13.100, -69.807, 20.47, 0.00638, 0.43304, -0.90131, -0.00098, 406, 100,
 19:40:19.747,e8:da:bf:c6:3e:4f, 2015-01-01 00:58:20.940, 2.774, -0.073, -0.808, 1.831, -6.104, -136.475, , , , , , , 179.769, -0.84, -127.013, -78.300, 13.100, -69.807, 20.47, 0.00638, 0.43304, -0.90131, -0.00098, 406, 100,
 19:40:19.747,e8:da:bf:c6:3e:4f, 2015-01-01 00:58:20.940, 1.712, -0.208, -0.854, 0.854, -4.272, -174.805, , , , , , , 179.764, -0.775, -125.398, -78.300, 13.100, -69.807, 20.47, 0.00638, 0.43304, -0.90131, -0.00098, 406, 100,
 19:40:19.748,e8:da:bf:c6:3e:4f, 2015-01-01 00:58:20.940, 0.706, -0.334, -1.003, 1.099, -2.869, -194.214, , , , , , , 179.758, -0.709, -123.552, -78.300, 13.100, -69.807, 20.47, 0.00638, 0.43304, -0.90131, -0.00098, 406, 100,
 19:40:19.748,e8:da:bf:c6:3e:4f, 2015-01-01 00:58:20.940, -0.161, -0.422, -1.024, -0.183, 3.967, -208.435, , , , , , , 179.742, -0.725, -121.52, -78.300, 13.100, -69.807, 20.47, 0.00638, 0.43304, -0.90131, -0.00098, 406, 100,
 19:40:19.748,e8:da:bf:c6:3e:4f, 2015-01-01 00:58:20.940, -0.428, -0.482, -0.986, 0.977, 1.465, -199.28, , , , , , , 179.731, -0.736, -119.46, -78.300, 13.100, -69.807, 20.47, 0.00638, 0.43304, -0.90131, -0.00098, 406, 100,
 19:40:19.748,e8:da:bf:c6:3e:4f, 2015-01-01 00:58:20.940, -0.407, -0.468, -1.013, 1.099, -1.892, -185.242, , , , , , , 179.72, -0.714, -117.565, -78.300, 13.100, -69.807, 20.47, 0.00638, 0.43304, -0.90131, -0.00098, 406, 100,
 19:40:19.764,e8:da:bf:c6:3e:4f, 2015-01-01 00:58:20.940, -0.576, -0.424, -1.051, -0.427, 0.854, -184.998, , , , , , , 179.709, -0.687, -115.708, -78.300, 13.100, -69.807, 20.47, 0.00638, 0.43304, -0.90131, -0.00098, 406, 100,
 19:40:19.764,e8:da:bf:c6:3e:4f, 2015-01-01 00:58:20.940, -0.56, -0.396, -1.034, -0.732, 1.892, -170.166, , , , , , , 179.687, -0.692, -113.939, -78.300, 13.100, -69.807, 20.47, 0.00638, 0.43304, -0.90131, -0.00098, 406, 100,
 19:40:19.764,e8:da:bf:c6:3e:4f, 2015-01-01 00:58:20.940, -0.497, -0.366, -0.953, 0, 2.441, -163.635, , , , , , , 179.665, -0.698, -112.275, -78.300, 13.100, -69.807, 20.47, 0.00638, 0.43304, -0.90131, -0.00098, 406, 100,
 19:40:19.764,e8:da:bf:c6:3e:4f, 2015-01-01 00:58:20.940, -0.583, -0.331, -0.904, 1.16, -1.221, -157.654, , , , , , , 179.659, -0.692, -110.682, -78.300, 13.100, -69.807, 20.47, 0.00638, 0.43304, -0.90131, -0.00098, 406, 100,
 19:40:19.796,e8:da:bf:c6:3e:4f, 2015-01-01 00:58:20.940, -1.288, -0.288, -0.963, 1.282, -3.601, -157.715, , , , , , , 179.659, -0.648, -109.1, -78.300, 13.100, -69.807, 20.47, 0.00638, 0.43304, -0.90131, -0.00098, 406, 100,
 19:40:19.796,e8:da:bf:c6:3e:4f, 2015-01-01 00:58:20.940, -2.321, -0.244, -1.114, -0.244, -6.165, -135.925, , , , , , , 179.654, -0.588, -107.628, -78.300, 13.100, -69.807, 20.47, 0.00638, 0.43304, -0.90131, -0.00098, 406, 100,
 19:40:19.796,e8:da:bf:c6:3e:4f, 2015-01-01 00:58:20.940, -3.689, -0.199, -1.151, -0.366, -8.057, -104.248, , , , , , , 179.637, -0.5, -106.43, -78.300, 13.100, -69.807, 20.47, 0.00638, 0.43304, -0.90131, -0.00098, 406, 100,
 19:40:19.796,e8:da:bf:c6:3e:4f, 2015-01-01 00:58:20.940, -4.676, -0.203, -0.928, 0.671, -6.042, -45.776, , , , , , , 179.637, -0.417, -105.677, -78.300, 13.100, -69.807, 20.47, 0.00638, 0.43304, -0.90131, -0.00098, 406, 100,
 19:40:20.003,e8:da:bf:c6:3e:4f, 2015-01-01 00:58:20.940, -4.705, -0.222, -0.729, 2.014, 0.854, 28.564, , , , , , , 179.654, -0.39, -105.634, -78.300, 13.100, -69.807, 20.47, 0.00638, 0.43304, -0.90131, -0.00098, 406, 100,
 19:40:20.004,e8:da:bf:c6:3e:4f, 2015-01-01 00:58:20.940, -3.701, -0.244, -0.811, 2.075, 8.667, 99.06, , , , , , , 179.681, -0.456, -106.315, -78.300, 13.100, -69.807, 20.47, 0.00604, 0.42426, -0.90546, -0.0011, 406, 100,
 19:40:20.004,e8:da:bf:c6:3e:4f, 2015-01-01 00:58:20.940, -2.127, -0.276, -1.019, -3.601, 10.803, 150.208, , , , , , , 179.681, -0.571, -107.611, -78.300, 13.100, -69.807, 20.47, 0.00604, 0.42426, -0.90546, -0.0011, 406, 100,
 19:40:20.004,e8:da:bf:c6:3e:4f, 2015-01-01 00:58:20.940, -0.676, -0.338, -1.022, -4.089, 7.812, 175.537, , , , , , , 179.648, -0.681, -109.276, -78.300, 13.100, -69.807, 20.47, 0.00604, 0.42426, -0.90546, -0.0011, 406, 100,
 19:40:20.020,e8:da:bf:c6:3e:4f, 2015-01-01 00:58:20.940, 0.086, -0.36, -0.822, 1.404, 4.333, 179.871, , , , , , , 179.654, -0.764, -111.066, -78.300, 13.100, -69.807, 20.47, 0.00604, 0.42426, -0.90546, -0.0011, 406, 100,
 19:40:20.020,e8:da:bf:c6:3e:4f, 2015-01-01 00:58:20.940, 0.393, -0.351, -0.954, 2.197, 1.587, 178.284, , , , , , , 179.698, -0.797, -112.857, -78.300, 13.100, -69.807, 20.47, 0.00604, 0.42426, -0.90546, -0.0011, 406, 100,
 19:40:20.020,e8:da:bf:c6:3e:4f, 2015-01-01 00:58:20.940, 1.043, -0.307, -1.316, -2.869, -1.526, 181.335, , , , , , , 179.714, -0.824, -114.664, -78.300, 13.100, -69.807, 20.47, 0.00604, 0.42426, -0.90546, -0.0011, 406, 100,
 19:40:20.020,e8:da:bf:c6:3e:4f, 2015-01-01 00:58:20.940, 1.097, -0.25, -1.251, -5.493, -5.005, 151.489, , , , , , , 179.687, -0.791, -116.345, -78.300, 13.100, -69.807, 20.47, 0.00604, 0.42426, -0.90546, -0.0011, 406, 100,
 19:40:20.021,e8:da:bf:c6:3e:4f, 2015-01-01 00:58:20.940, 0.678, -0.238, -0.802, -2.563, -2.258, 128.601, , , , , , , 179.654, -0.769, -117.702, -78.300, 13.100, -69.807, 20.47, 0.00604, 0.42426, -0.90546, -0.0011, 406, 100,
 19:40:20.021,e8:da:bf:c6:3e:4f, 2015-01-01 00:58:20.940, 0.35, -0.247, -0.521, 4.517, -0.305, 127.258, , , , , , , 179.681, -0.769, -118.987, -78.300, 13.100, -69.807, 20.47, 0.00604, 0.42426, -0.90546, -0.0011, 406, 100,
 19:40:20.021,e8:da:bf:c6:3e:4f, 2015-01-01 00:58:20.940, 0.031, -0.199, -0.803, 5.127, -0.977, 117.981, , , , , , , 179.753, -0.769, -120.212, -78.300, 13.100, -69.807, 20.47, 0.00604, 0.42426, -0.90546, -0.0011, 406, 100,
 19:40:20.021,e8:da:bf:c6:3e:4f, 2015-01-01 00:58:20.940, -0.095, -0.154, -1.342, -1.465, -2.502, 119.629, , , , , , , 179.78, -0.764, -121.393, -78.300, 13.100, -69.807, 20.47, 0.00604, 0.42426, -0.90546, -0.0011, 406, 100,
 19:40:20.021,e8:da:bf:c6:3e:4f, 2015-01-01 00:58:20.940, -0.633, -0.155, -1.385, -5.859, -6.714, 114.075, , , , , , , 179.747, -0.72, -122.58, -78.300, 13.100, -69.807, 20.47, 0.00604, 0.42426, -0.90546, -0.0011, 406, 100,
 19:40:20.021,e8:da:bf:c6:3e:4f, 2015-01-01 00:58:20.940, -1.322, -0.231, -0.946, -1.77, -2.563, 122.62, , , , , , , 179.714, -0.687, -123.723, -78.300, 13.100, -69.807, 20.47, 0.00604, 0.42426, -0.90546, -0.0011, 406, 100,
 19:40:20.022,e8:da:bf:c6:3e:4f, 2015-01-01 00:58:20.940, -1.341, -0.344, -0.666, 1.587, -1.526, 161.804, , , , , , , 179.731, -0.676, -125.184, -78.300, 13.100, -69.807, 20.47, 0.00604, 0.42426, -0.90546, -0.0011, 406, 100,
 19:40:20.022,e8:da:bf:c6:3e:4f, 2015-01-01 00:58:20.940, -1.224, -0.383, -0.845, 2.502, 2.075, 174.072, , , , , , , 179.769, -0.692, -126.859, -78.300, 13.100, -69.807, 20.47, 0.00604, 0.42426, -0.90546, -0.0011, 406, 100,
 19:40:20.022,e8:da:bf:c6:3e:4f, 2015-01-01 00:58:20.940, -0.562, -0.429, -1.098, -1.16, 3.235, 201.294, , , , , , , 179.797, -0.742, -128.765, -78.300, 13.100, -69.807, 20.47, 0.00604, 0.42426, -0.90546, -0.0011, 406, 100,
 19:40:20.022,e8:da:bf:c6:3e:4f, 2015-01-01 00:58:20.940, -0.106, -0.465, -1.1, -2.319, 4.7, 202.515, , , , , , , 179.791, -0.791, -130.798, -78.300, 13.100, -69.807, 20.47, 0.00604, 0.42426, -0.90546, -0.0011, 406, 100,
 19:40:20.022,e8:da:bf:c6:3e:4f, 2015-01-01 00:58:20.940, 0.108, -0.5, -0.97, -1.099, -0.488, 202.82, , , , , , , 179.797, -0.824, -132.825, -78.300, 13.100, -69.807, 20.47, 0.00604, 0.42426, -0.90546, -0.0011, 406, 100,
 19:40:20.022,e8:da:bf:c6:3e:4f, 2015-01-01 00:58:20.940, 0.16, -0.514, -0.918, 0, -0.793, 202.209, , , , , , , 179.819, -0.829, -134.852, -78.300, 13.100, -69.807, 20.47, 0.00604, 0.42426, -0.90546, -0.0011, 406, 100,
 19:40:20.038,e8:da:bf:c6:3e:4f, 2015-01-01 00:58:21.265, 0.245, -0.501, -0.977, -0.122, 0.244, 201.477, , , , , , , 179.841, -0.84, -136.873, -78.300, 13.100, -69.807, 20.47, 0.00604, 0.42426, -0.90546, -0.0011, 406, 100,
 19:40:20.038,e8:da:bf:c6:3e:4f, 2015-01-01 00:58:21.265, 0.547, -0.472, -1.048, -0.916, -0.366, 200.928, , , , , , , 179.857, -0.857, -138.889, -78.300, 13.100, -69.807, 20.47, 0.00604, 0.42426, -0.90546, -0.0011, 406, 100,
 19:40:20.039,e8:da:bf:c6:3e:4f, 2015-01-01 00:58:21.265, 0.589, -0.42, -1.032, -1.77, -2.319, 186.157, , , , , , , 179.863, -0.851, -140.839, -78.300, 13.100, -69.807, 20.47, 0.00604, 0.42426, -0.90546, -0.0011, 406, 100,
 19:40:20.039,e8:da:bf:c6:3e:4f, 2015-01-01 00:58:21.265, 0.422, -0.397, -0.919, -0.793, -1.465, 174.866, , , , , , , 179.868, -0.84, -142.63, -78.300, 13.100, -69.807, 20.47, 0.00604, 0.42426, -0.90546, -0.0011, 406, 100,
 19:40:20.174,e8:da:bf:c6:3e:4f, 2015-01-01 00:58:21.265, 0.278, -0.388, -0.887, 0.732, -2.197, 172.241, , , , , , , 179.89, -0.835, -144.366, -78.300, 13.100, -69.807, 20.47, 0.00604, 0.42426, -0.90546, -0.0011, 406, 100,
 19:40:20.174,e8:da:bf:c6:3e:4f, 2015-01-01 00:58:21.265, 0.081, -0.368, -0.997, -0.183, -2.014, 165.466, , , , , , , 179.912, -0.818, -146.052, -78.300, 13.100, -69.807, 20.47, 0.00604, 0.42426, -0.90546, -0.0011, 406, 100,
 19:40:20.174,e8:da:bf:c6:3e:4f, 2015-01-01 00:58:21.265, -0.024, -0.358, -1.086, -1.526, -1.221, 166.016, , , , , , , 179.923, -0.813, -147.706, -78.300, 13.100, -69.807, 20.47, 0.00604, 0.42426, -0.90546, -0.0011, 406, 100,
 19:40:20.174,e8:da:bf:c6:3e:4f, 2015-01-01 00:58:21.265, 0.019, -0.356, -1.052, -1.831, -1.343, 170.532, , , , , , , 179.923, -0.807, -149.398, -78.300, 13.100, -69.807, 20.47, 0.00604, 0.42426, -0.90546, -0.0011, 406, 100,
 19:40:20.198,e8:da:bf:c6:3e:4f, 2015-01-01 00:58:21.265, 0.012, -0.352, -0.93, -0.977, -1.77, 168.335, , , , , , , 179.929, -0.802, -151.095, -78.300, 13.100, -69.807, 20.47, 0.00604, 0.42426, -0.90546, -0.0011, 406, 100,
 19:40:20.199,e8:da:bf:c6:3e:4f, 2015-01-01 00:58:21.265, -0.03, -0.35, -0.859, 0.671, -2.808, 166.443, , , , , , , 179.945, -0.78, -152.77, -78.300, 13.100, -69.807, 20.47, 0.00604, 0.42426, -0.90546, -0.0011, 406, 100,
 19:40:20.199,e8:da:bf:c6:3e:4f, 2015-01-01 00:58:21.265, -0.198, -0.348, -0.947, 0.732, -1.099, 163.33, , , , , , , 179.973, -0.769, -154.418, -78.300, 13.100, -69.807, 20.47, 0.00604, 0.42426, -0.90546, -0.0011, 406, 100,
 19:40:20.199,e8:da:bf:c6:3e:4f, 2015-01-01 00:58:21.265, -0.174, -0.37, -1.071, -0.854, 2.625, 172.18, , , , , , , 179.984, -0.791, -156.083, -78.300, 13.100, -69.807, 20.47, 0.00604, 0.42426, -0.90546, -0.0011, 406, 100,
 19:40:20.199,e8:da:bf:c6:3e:4f, 2015-01-01 00:58:21.265, 0.084, -0.402, -1.054, -1.587, 3.235, 184.753, , , , , , , 179.989, -0.813, -157.885, -78.300, 13.100, -69.807, 20.47, 0.00604, 0.42426, -0.90546, -0.0011, 406, 100,
 19:40:20.199,e8:da:bf:c6:3e:4f, 2015-01-01 00:58:21.265, 2.018, -0.417, -0.934, 0.854, 1.282, 204.651, , , , , , , -179.995, -0.862, -159.84, -78.300, 13.100, -69.807, 20.47, 0.00604, 0.42426, -0.90546, -0.0011, 406, 100,
 19:40:20.199,e8:da:bf:c6:3e:4f, 2015-01-01 00:58:21.265, 3.597, -0.285, -0.95, 5.005, 0.732, 157.166, , , , , , , -179.923, -0.846, -161.719, -78.300, 13.100, -69.807, 20.47, 0.00604, 0.42426, -0.90546, -0.0011, 406, 100,
 19:40:20.199,e8:da:bf:c6:3e:4f, 2015-01-01 00:58:21.265, 4.866, -0.121, -1.093, -1.16, 6.592, 97.473, , , , , , , -179.896, -0.906, -162.911, -78.300, 13.100, -69.807, 20.47, 0.00604, 0.42426, -0.90546, -0.0011, 406, 100,
 19:40:20.215,e8:da:bf:c6:3e:4f, 2015-01-01 00:58:21.265, 4.843, 0.015, -1.073, -0.977, -5.615, 23.071, , , , , , , -179.901, -0.901, -163.548, -78.300, 13.100, -69.807, 20.47, 0.00604, 0.42426, -0.90546, -0.0011, 406, 100,
 19:40:20.215,e8:da:bf:c6:3e:4f, 2015-01-01 00:58:21.265, 3.387, 0.019, -0.857, -0.366, -9.46, -57.312, , , , , , , -179.912, -0.824, -163.279, -78.300, 13.100, -69.807, 20.47, 0.00604, 0.42426, -0.90546, -0.0011, 406, 100,
 19:40:20.215,e8:da:bf:c6:3e:4f, 2015-01-01 00:58:21.265, 1.529, -0.056, -0.751, 2.93, -11.23, -105.225, , , , , , , -179.907, -0.692, -162.444, -78.300, 13.100, -69.807, 20.47, 0.00604, 0.42426, -0.90546, -0.0011, 406, 100,
 19:40:20.215,e8:da:bf:c6:3e:4f, 2015-01-01 00:58:21.265, -0.239, -0.064, -0.946, 0.305, 1.465, -130.615, , , , , , , -179.896, -0.67, -161.219, -78.300, 13.100, -69.807, 20.47, 0.00604, 0.42426, -0.90546, -0.0011, 406, 100,
 19:40:20.247,e8:da:bf:c6:3e:4f, 2015-01-01 00:58:21.265, -1.269, -0.091, -1.241, -3.357, -6.409, -115.295, , , , , , , -179.923, -0.654, -159.966, -78.300, 13.100, -69.807, 20.47, 0.00604, 0.42426, -0.90546, -0.0011, 406, 100,
 19:40:20.247,e8:da:bf:c6:3e:4f, 2015-01-01 00:58:21.265, -2.237, -0.104, -1.313, -6.897, -7.751, -92.102, , , , , , , -179.984, -0.571, -158.961, -78.300, 13.100, -69.807, 20.47, 0.00604, 0.42426, -0.90546, -0.0011, 406, 100,
 19:40:20.247,e8:da:bf:c6:3e:4f, 2015-01-01 00:58:21.265, -3.035, -0.15, -1.034, -4.639, -0.671, -61.401, , , , , , , 179.94, -0.533, -158.17, -78.300, 13.100, -69.807, 20.47, 0.00604, 0.42426, -0.90546, -0.0011, 406, 100,
 19:40:20.247,e8:da:bf:c6:3e:4f, 2015-01-01 00:58:21.265, -2.969, -0.179, -0.621, 0.793, 1.587, -2.563, , , , , , , 179.923, -0.538, -157.896, -78.300, 13.100, -69.807, 20.47, 0.00604, 0.42426, -0.90546, -0.0011, 406, 100,
 19:40:20.447,e8:da:bf:c6:3e:4f, 2015-01-01 00:58:21.265, -2.396, -0.12, -0.59, 4.883, 6.409, 35.156, , , , , , , 179.962, -0.577, -158.077, -78.300, 13.100, -69.807, 20.47, 0.00604, 0.42426, -0.90546, -0.0011, 406, 100,
 19:40:20.447,e8:da:bf:c6:3e:4f, 2015-01-01 00:58:21.625, -1.043, -0.051, -0.914, 1.892, 8.85, 75.989, , , , , , , -179.995, -0.67, -158.676, -78.300, 13.100, -69.807, 20.47, 0.00546, 0.15228, -0.98828, -0.00015, 406, 100,
 19:40:20.447,e8:da:bf:c6:3e:4f, 2015-01-01 00:58:21.625, -0.204, -0.019, -1.132, 0.061, 10.132, 83.008, , , , , , , -179.984, -0.764, -159.494, -78.300, 13.100, -69.807, 20.47, 0.00546, 0.15228, -0.98828, -0.00015, 406, 100,
 19:40:20.447,e8:da:bf:c6:3e:4f, 2015-01-01 00:58:21.625, 0.12, -0.07, -1.135, -0.305, 1.282, 84.106, , , , , , , -179.978, -0.813, -160.334, -78.300, 13.100, -69.807, 20.47, 0.00546, 0.15228, -0.98828, -0.00015, 406, 100,
 19:40:20.463,e8:da:bf:c6:3e:4f, 2015-01-01 00:58:21.625, 1.312, -0.125, -1.02, -0.061, 4.883, 98.938, , , , , , , -179.973, -0.862, -161.235, -78.300, 13.100, -69.807, 20.47, 0.00546, 0.15228, -0.98828, -0.00015, 406, 100,
 19:40:20.463,e8:da:bf:c6:3e:4f, 2015-01-01 00:58:21.625, 2.61, -0.079, -1.002, 5.554, -7.874, 78.308, , , , , , , -179.929, -0.829, -162.208, -78.300, 13.100, -69.807, 20.47, 0.00546, 0.15228, -0.98828, -0.00015, 406, 100,
 19:40:20.463,e8:da:bf:c6:3e:4f, 2015-01-01 00:58:21.625, 2.698, 0.037, -1.058, -2.686, 3.967, 10.254, , , , , , , -179.912, -0.818, -162.57, -78.300, 13.100, -69.807, 20.47, 0.00546, 0.15228, -0.98828, -0.00015, 406, 100,
 19:40:20.463,e8:da:bf:c6:3e:4f, 2015-01-01 00:58:21.625, 2.571, 0.063, -1.002, -0.427, -6.042, -12.207, , , , , , , -179.934, -0.813, -162.576, -78.300, 13.100, -69.807, 20.47, 0.00546, 0.15228, -0.98828, -0.00015, 406, 100,
 19:40:20.463,e8:da:bf:c6:3e:4f, 2015-01-01 00:58:21.625, 1.47, 0.037, -0.846, -1.587, -3.723, -65.491, , , , , , , -179.945, -0.747, -162.136, -78.300, 13.100, -69.807, 20.47, 0.00546, 0.15228, -0.98828, -0.00015, 406, 100,
 19:40:20.463,e8:da:bf:c6:3e:4f, 2015-01-01 00:58:21.625, 0.607, -0.053, -0.79, 2.136, -1.099, -71.289, , , , , , , -179.951, -0.731, -161.433, -78.300, 13.100, -69.807, 20.47, 0.00546, 0.15228, -0.98828, -0.00015, 406, 100,
 19:40:20.464,e8:da:bf:c6:3e:4f, 2015-01-01 00:58:21.625, -0.041, -0.042, -1.015, 1.282, 0.244, -88.196, , , , , , , -179.929, -0.714, -160.637, -78.300, 13.100, -69.807, 20.47, 0.00546, 0.15228, -0.98828, -0.00015, 406, 100,
 19:40:20.464,e8:da:bf:c6:3e:4f, 2015-01-01 00:58:21.625, -0.702, -0.039, -1.243, -2.625, -4.15, -89.966, , , , , , , -179.951, -0.709, -159.73, -78.300, 13.100, -69.807, 20.47, 0.00546, 0.15228, -0.98828, -0.00015, 406, 100,
 19:40:20.464,e8:da:bf:c6:3e:4f, 2015-01-01 00:58:21.625, -1.397, -0.057, -1.223, -5.676, -5.005, -74.341, , , , , , , -180, -0.648, -158.901, -78.300, 13.100, -69.807, 20.47, 0.00546, 0.15228, -0.98828, -0.00015, 406, 100,
 19:40:20.464,e8:da:bf:c6:3e:4f, 2015-01-01 00:58:21.625, -1.984, -0.089, -0.983, -3.967, -2.625, -49.011, , , , , , , 179.94, -0.61, -158.302, -78.300, 13.100, -69.807, 20.47, 0.00546, 0.15228, -0.98828, -0.00015, 406, 100,
 19:40:20.464,e8:da:bf:c6:3e:4f, 2015-01-01 00:58:21.625, -2.101, -0.109, -0.708, 0.793, 0.671, -15.991, , , , , , , 179.929, -0.604, -157.978, -78.300, 13.100, -69.807, 20.47, 0.00546, 0.15228, -0.98828, -0.00015, 406, 100,
 19:40:20.465,e8:da:bf:c6:3e:4f, 2015-01-01 00:58:21.625, -1.811, -0.085, -0.676, 3.784, 2.441, 17.151, , , , , , , 179.956, -0.621, -158.016, -78.300, 13.100, -69.807, 20.47, 0.00546, 0.15228, -0.98828, -0.00015, 406, 100,
 19:40:20.465,e8:da:bf:c6:3e:4f, 2015-01-01 00:58:21.625, -1.25, -0.042, -0.93, 2.93, 5.737, 41.138, , , , , , , 179.995, -0.659, -158.318, -78.300, 13.100, -69.807, 20.47, 0.00546, 0.15228, -0.98828, -0.00015, 406, 100,
 19:40:20.465,e8:da:bf:c6:3e:4f, 2015-01-01 00:58:21.625, -0.401, -0.033, -1.118, -0.549, 6.958, 62.5, , , , , , , -179.995, -0.731, -158.868, -78.300, 13.100, -69.807, 20.47, 0.00546, 0.15228, -0.98828, -0.00015, 406, 100,
 19:40:20.465,e8:da:bf:c6:3e:4f, 2015-01-01 00:58:21.625, 0.052, -0.044, -1.084, -0.183, 3.174, 63.843, , , , , , , -179.989, -0.797, -159.51, -78.300, 13.100, -69.807, 20.47, 0.00546, 0.15228, -0.98828, -0.00015, 406, 100,
 19:40:20.466,e8:da:bf:c6:3e:4f, 2015-01-01 00:58:21.625, 0.188, -0.044, -1.02, -0.244, 0.793, 61.646, , , , , , , -179.989, -0.807, -160.142, -78.300, 13.100, -69.807, 20.47, 0.00546, 0.15228, -0.98828, -0.00015, 406, 100,
 19:40:20.481,e8:da:bf:c6:3e:4f, 2015-01-01 00:58:21.625, 0.618, -0.036, -0.929, 0.549, 4.578, 66.345, , , , , , , -179.978, -0.84, -160.774, -78.300, 13.100, -69.807, 20.47, 0.00546, 0.15228, -0.98828, -0.00015, 406, 100,
 19:40:20.481,e8:da:bf:c6:3e:4f, 2015-01-01 00:58:21.625, 1.364, -0.007, -0.919, 2.625, -5.493, 59.998, , , , , , , -179.956, -0.84, -161.444, -78.300, 13.100, -69.807, 20.47, 0.00546, 0.15228, -0.98828, -0.00015, 406, 100,
 19:40:20.481,e8:da:bf:c6:3e:4f, 2015-01-01 00:58:21.625, 1.348, 0.029, -1.007, 0.366, -1.465, 20.264, , , , , , , -179.934, -0.802, -161.818, -78.300, 13.100, -69.807, 20.47, 0.00546, 0.15228, -0.98828, -0.00015, 406, 100,
 19:40:20.482,e8:da:bf:c6:3e:4f, 2015-01-01 00:58:21.625, 1.373, 0.008, -1.082, -1.099, -0.671, 10.986, , , , , , , -179.94, -0.802, -161.96, -78.300, 13.100, -69.807, 20.47, 0.00546, 0.15228, -0.98828, -0.00015, 406, 100,
 19:40:20.525,e8:da:bf:c6:3e:4f, 2015-01-01 00:58:21.625, 0.972, 0, -0.993, -0.671, -1.587, -13.855, , , , , , , -179.951, -0.786, -161.949, -78.300, 13.100, -69.807, 20.47, 0.00546, 0.15228, -0.98828, -0.00015, 406, 100,
 19:40:20.525,e8:da:bf:c6:3e:4f, 2015-01-01 00:58:21.625, 0.649, -0.007, -0.882, 1.404, -0.183, -26.428, , , , , , , -179.945, -0.78, -161.724, -78.300, 13.100, -69.807, 20.47, 0.00546, 0.15228, -0.98828, -0.00015, 406, 100,
 19:40:20.531,e8:da:bf:c6:3e:4f, 2015-01-01 00:58:21.625, 0.321, 0.02, -1.002, 0.793, -2.808, -37.109, , , , , , , -179.934, -0.758, -161.417, -78.300, 13.100, -69.807, 20.47, 0.00546, 0.15228, -0.98828, -0.00015, 406, 100,
 19:40:20.532,e8:da:bf:c6:3e:4f, 2015-01-01 00:58:21.625, -0.022, 0.033, -1.169, -3.235, 1.099, -45.044, , , , , , , -179.956, -0.747, -160.983, -78.300, 13.100, -69.807, 20.47, 0.00546, 0.15228, -0.98828, -0.00015, 406, 100,
 19:40:20.700,e8:da:bf:c6:3e:4f, 2015-01-01 00:58:21.625, 0.062, -0.002, -1.006, -2.563, 2.686, -32.41, , , , , , , -179.995, -0.769, -160.593, -78.300, 13.100, -69.807, 20.47, 0.00546, 0.15228, -0.98828, -0.00015, 406, 100,
 19:40:20.701,e8:da:bf:c6:3e:4f, 2015-01-01 00:58:21.625, 0.94, -0.032, -0.708, 2.686, 2.014, -20.447, , , , , , , -179.995, -0.802, -160.351, -78.300, 13.100, -69.807, 20.47, 0.0058, 0.29733, -0.95471, -0.00067, 406, 100,
 19:40:20.701,e8:da:bf:c6:3e:4f, 2015-01-01 00:58:21.625, 1.473, 0.008, -0.802, 4.7, -1.587, -47.424, , , , , , , -179.951, -0.786, -160.038, -78.300, 13.100, -69.807, 20.47, 0.0058, 0.29733, -0.95471, -0.00067, 406, 100,
 19:40:20.701,e8:da:bf:c6:3e:4f, 2015-01-01 00:58:21.625, 1.745, 0, -1.208, -0.427, 0.61, -72.266, , , , , , , -179.94, -0.791, -159.401, -78.300, 13.100, -69.807, 20.47, 0.0058, 0.29733, -0.95471, -0.00067, 406, 100,
 19:40:20.733,e8:da:bf:c6:3e:4f, 2015-01-01 00:58:21.625, 1.456, -0.046, -1.316, -4.517, -2.625, -98.267, , , , , , , -179.973, -0.775, -158.56, -78.300, 13.100, -69.807, 20.47, 0.0058, 0.29733, -0.95471, -0.00067, 406, 100,
 19:40:20.733,e8:da:bf:c6:3e:4f, 2015-01-01 00:58:21.625, 1.156, -0.15, -0.914, -2.38, -0.183, -119.202, , , , , , , 179.973, -0.758, -157.434, -78.300, 13.100, -69.807, 20.47, 0.0058, 0.29733, -0.95471, -0.00067, 406, 100,
 19:40:20.734,e8:da:bf:c6:3e:4f, 2015-01-01 00:58:21.625, 0.846, -0.202, -0.622, 3.296, 1.526, -132.874, , , , , , , 179.967, -0.753, -156.182, -78.300, 13.100, -69.807, 20.47, 0.0058, 0.29733, -0.95471, -0.00067, 406, 100,
 19:40:20.734,e8:da:bf:c6:3e:4f, 2015-01-01 00:58:21.625, 0.593, -0.207, -0.754, 5.249, 3.174, -145.874, , , , , , , -179.995, -0.78, -154.77, -78.300, 13.100, -69.807, 20.47, 0.0058, 0.29733, -0.95471, -0.00067, 406, 100,
 19:40:20.734,e8:da:bf:c6:3e:4f, 2015-01-01 00:58:21.625, 0.365, -0.205, -1.179, 0.854, -0.916, -154.053, , , , , , , -179.978, -0.786, -153.276, -78.300, 13.100, -69.807, 20.47, 0.0058, 0.29733, -0.95471, -0.00067, 406, 100,
 19:40:20.734,e8:da:bf:c6:3e:4f, 2015-01-01 00:58:21.625, 0.047, -0.25, -1.323, -3.845, 0.488, -163.208, , , , , , , 179.984, -0.775, -151.677, -78.300, 13.100, -69.807, 20.47, 0.0058, 0.29733, -0.95471, -0.00067, 406, 100,
 19:40:20.734,e8:da:bf:c6:3e:4f, 2015-01-01 00:58:21.625, -0.006, -0.331, -1.021, -2.258, 2.197, -156.372, , , , , , , 179.929, -0.786, -150.073, -78.300, 13.100, -69.807, 20.47, 0.0058, 0.29733, -0.95471, -0.00067, 406, 100,
 19:40:20.735,e8:da:bf:c6:3e:4f, 2015-01-01 00:58:21.625, 0.155, -0.352, -0.727, 2.441, 1.282, -150.635, , , , , , , 179.918, -0.797, -148.552, -78.300, 13.100, -69.807, 20.47, 0.0058, 0.29733, -0.95471, -0.00067, 406, 100,
 19:40:20.735,e8:da:bf:c6:3e:4f, 2015-01-01 00:58:21.625, 0.108, -0.302, -0.83, 3.418, 0.366, -159.119, , , , , , , 179.94, -0.802, -147.008, -78.300, 13.100, -69.807, 20.47, 0.0058, 0.29733, -0.95471, -0.00067, 406, 100,
 19:40:20.735,e8:da:bf:c6:3e:4f, 2015-01-01 00:58:21.625, 0.063, -0.262, -1.166, -0.854, 1.221, -160.339, , , , , , , 179.934, -0.802, -145.399, -78.300, 13.100, -69.807, 20.47, 0.0058, 0.29733, -0.95471, -0.00067, 406, 100,
 19:40:20.735,e8:da:bf:c6:3e:4f, 2015-01-01 00:58:21.625, 0.153, -0.285, -1.14, -2.563, 1.648, -156.982, , , , , , , 179.896, -0.813, -143.822, -78.300, 13.100, -69.807, 20.47, 0.0058, 0.29733, -0.95471, -0.00067, 406, 100,
 19:40:20.735,e8:da:bf:c6:3e:4f, 2015-01-01 00:58:21.625, 0.262, -0.336, -0.85, 0.732, 1.16, -159.546, , , , , , , 179.868, -0.818, -142.24, -78.300, 13.100, -69.807, 20.47, 0.0058, 0.29733, -0.95471, -0.00067, 406, 100,
 19:40:20.735,e8:da:bf:c6:3e:4f, 2015-01-01 00:58:21.625, 0.338, -0.362, -0.773, 3.723, 1.221, -162.964, , , , , , , 179.874, -0.824, -140.63, -78.300, 13.100, -69.807, 20.47, 0.0058, 0.29733, -0.95471, -0.00067, 406, 100,
 19:40:20.736,e8:da:bf:c6:3e:4f, 2015-01-01 00:58:21.625, 0.301, -0.344, -1.015, 2.197, 0.793, -169.556, , , , , , , 179.89, -0.824, -138.966, -78.300, 13.100, -69.807, 20.47, 0.0058, 0.29733, -0.95471, -0.00067, 406, 100,
 19:40:20.736,e8:da:bf:c6:3e:4f, 2015-01-01 00:58:21.625, 0.208, -0.331, -1.226, -1.587, 1.038, -174.805, , , , , , , 179.874, -0.829, -137.236, -78.300, 13.100, -69.807, 20.47, 0.0058, 0.29733, -0.95471, -0.00067, 406, 100,
 19:40:20.736,e8:da:bf:c6:3e:4f, 2015-01-01 00:58:21.625, 0.198, -0.352, -1.108, -2.441, 0.793, -175.232, , , , , , , 179.83, -0.829, -135.489, -78.300, 13.100, -69.807, 20.47, 0.0058, 0.29733, -0.95471, -0.00067, 406, 100,
 19:40:20.752,e8:da:bf:c6:3e:4f, 2015-01-01 00:58:21.980, 0.176, -0.39, -0.812, 0.61, 0.854, -178.528, , , , , , , 179.797, -0.829, -133.72, -78.300, 13.100, -69.807, 20.47, 0.0058, 0.29733, -0.95471, -0.00067, 406, 100,
 19:40:20.752,e8:da:bf:c6:3e:4f, 2015-01-01 00:58:21.980, 0.188, -0.412, -0.751, 4.089, 0.854, -179.626, , , , , , , 179.808, -0.824, -131.929, -78.300, 13.100, -69.807, 20.47, 0.0058, 0.29733, -0.95471, -0.00067, 406, 100,
 19:40:20.752,e8:da:bf:c6:3e:4f, 2015-01-01 00:58:21.980, 0.112, -0.399, -1.031, 1.953, 0.305, -183.899, , , , , , , 179.819, -0.824, -130.117, -78.300, 13.100, -69.807, 20.47, 0.0058, 0.29733, -0.95471, -0.00067, 406, 100,
 19:40:20.752,e8:da:bf:c6:3e:4f, 2015-01-01 00:58:21.980, 0.035, -0.396, -1.229, -1.587, 0.183, -185.181, , , , , , , 179.797, -0.813, -128.265, -78.300, 13.100, -69.807, 20.47, 0.0058, 0.29733, -0.95471, -0.00067, 406, 100,
 19:40:20.887,e8:da:bf:c6:3e:4f, 2015-01-01 00:58:21.980, -0.027, -0.416, -1.096, -2.014, 0.61, -185.303, , , , , , , 179.758, -0.807, -126.414, -78.300, 13.100, -69.807, 20.47, 0.0058, 0.29733, -0.95471, -0.00067, 406, 100,
 19:40:20.887,e8:da:bf:c6:3e:4f, 2015-01-01 00:58:21.980, -0.056, -0.437, -0.841, 0.732, 1.099, -184.387, , , , , , , 179.731, -0.802, -124.568, -78.300, 13.100, -69.807, 20.47, 0.0058, 0.29733, -0.95471, -0.00067, 406, 100,
 19:40:20.887,e8:da:bf:c6:3e:4f, 2015-01-01 00:58:21.980, 0.003, -0.428, -0.798, 2.93, 1.282, -181.091, , , , , , , 179.731, -0.807, -122.745, -78.300, 13.100, -69.807, 20.47, 0.0058, 0.29733, -0.95471, -0.00067, 406, 100,
 19:40:20.887,e8:da:bf:c6:3e:4f, 2015-01-01 00:58:21.980, -0.005, -0.394, -1, 1.526, 0.977, -182.739, , , , , , , 179.736, -0.802, -120.927, -78.300, 13.100, -69.807, 20.47, 0.0058, 0.29733, -0.95471, -0.00067, 406, 100,
 19:40:20.903,e8:da:bf:c6:3e:4f, 2015-01-01 00:58:21.980, 0.018, -0.385, -1.134, -0.854, 1.038, -181.396, , , , , , , 179.72, -0.802, -119.103, -78.300, 13.100, -69.807, 20.47, 0.0058, 0.29733, -0.95471, -0.00067, 406, 100,
 19:40:20.903,e8:da:bf:c6:3e:4f, 2015-01-01 00:58:21.980, 0.002, -0.407, -1.007, -0.427, 1.282, -181.824, , , , , , , 179.687, -0.797, -117.296, -78.300, 13.100, -69.807, 20.47, 0.0058, 0.29733, -0.95471, -0.00067, 406, 100,
 19:40:20.903,e8:da:bf:c6:3e:4f, 2015-01-01 00:58:21.980, 0.048, -0.432, -0.87, 1.709, 1.404, -180.359, , , , , , , 179.676, -0.797, -115.483, -78.300, 13.100, -69.807, 20.47, 0.0058, 0.29733, -0.95471, -0.00067, 406, 100,
 19:40:20.903,e8:da:bf:c6:3e:4f, 2015-01-01 00:58:21.980, 0.062, -0.422, -0.933, 2.075, 0.732, -181.335, , , , , , , 179.681, -0.791, -113.681, -78.300, 13.100, -69.807, 20.47, 0.0058, 0.29733, -0.95471, -0.00067, 406, 100,
 19:40:20.903,e8:da:bf:c6:3e:4f, 2015-01-01 00:58:21.980, 0.089, -0.396, -1.089, 0.061, 1.404, -182.007, , , , , , , 179.67, -0.791, -111.857, -78.300, 13.100, -69.807, 20.47, 0.0058, 0.29733, -0.95471, -0.00067, 406, 100,
 19:40:20.903,e8:da:bf:c6:3e:4f, 2015-01-01 00:58:21.980, 0.116, -0.383, -1.1, -1.343, 0.916, -182.19, , , , , , , 179.643, -0.786, -110.045, -78.300, 13.100, -69.807, 20.47, 0.0058, 0.29733, -0.95471, -0.00067, 406, 100,
 19:40:20.903,e8:da:bf:c6:3e:4f, 2015-01-01 00:58:21.980, 0.042, -0.402, -0.925, -0.183, 0.427, -185.791, , , , , , , 179.615, -0.78, -108.204, -78.300, 13.100, -69.807, 20.47, 0.0058, 0.29733, -0.95471, -0.00067, 406, 100,
 19:40:20.903,e8:da:bf:c6:3e:4f, 2015-01-01 00:58:21.980, -0.027, -0.436, -0.793, 2.686, 0.366, -185.364, , , , , , , 179.61, -0.764, -106.348, -78.300, 13.100, -69.807, 20.47, 0.0058, 0.29733, -0.95471, -0.00067, 406, 100,
 19:40:20.946,e8:da:bf:c6:3e:4f, 2015-01-01 00:58:21.980, -0.073, -0.44, -0.918, 2.869, 0.671, -184.448, , , , , , , 179.626, -0.753, -104.502, -78.300, 13.100, -69.807, 20.47, 0.0058, 0.29733, -0.95471, -0.00067, 406, 100,
 19:40:20.946,e8:da:bf:c6:3e:4f, 2015-01-01 00:58:21.980, -0.138, -0.404, -1.144, 0, -3.723, -185.913, , , , , , , 179.621, -0.731, -102.656, -78.300, 13.100, -69.807, 20.47, 0.0058, 0.29733, -0.95471, -0.00067, 406, 100,
 19:40:20.946,e8:da:bf:c6:3e:4f, 2015-01-01 00:58:21.980, -1.755, -0.354, -1.153, -1.77, -7.019, -206.543, , , , , , , 179.588, -0.648, -100.695, -78.300, 13.100, -69.807, 20.47, 0.0058, 0.29733, -0.95471, -0.00067, 406, 100,
 19:40:20.946,e8:da:bf:c6:3e:4f, 2015-01-01 00:58:21.980, -2.972, -0.381, -1.059, 1.221, -5.737, -164.062, , , , , , , 179.588, -0.577, -98.778, -78.300, 13.100, -69.807, 20.47, 0.0058, 0.29733, -0.95471, -0.00067, 406, 100,
 19:40:20.962,e8:da:bf:c6:3e:4f, 2015-01-01 00:58:21.980, -3.86, -0.334, -0.873, -1.465, -5.859, -111.45, , , , , , , 179.572, -0.5, -97.487, -78.300, 13.100, -69.807, 20.47, 0.0058, 0.29733, -0.95471, -0.00067, 406, 100,
 19:40:20.962,e8:da:bf:c6:3e:4f, 2015-01-01 00:58:21.980, -3.876, -0.277, -0.782, 5.127, 2.075, -56.702, , , , , , , 179.599, -0.478, -96.614, -78.300, 13.100, -69.807, 20.47, 0.0058, 0.29733, -0.95471, -0.00067, 406, 100,
 19:40:20.962,e8:da:bf:c6:3e:4f, 2015-01-01 00:58:21.980, -3.128, -0.188, -0.894, -1.953, 5.188, 6.592, , , , , , , 179.61, -0.516, -96.449, -78.300, 13.100, -69.807, 20.47, 0.0058, 0.29733, -0.95471, -0.00067, 406, 100,
 19:40:20.962,e8:da:bf:c6:3e:4f, 2015-01-01 00:58:21.980, -1.87, -0.124, -1.041, -0.916, 10.62, 46.082, , , , , , , 179.594, -0.604, -96.707, -78.300, 13.100, -69.807, 20.47, 0.0058, 0.29733, -0.95471, -0.00067, 406, 100,
 19:40:20.994,e8:da:bf:c6:3e:4f, 2015-01-01 00:58:21.980, -0.292, -0.091, -1.004, -4.211, 5.249, 80.2, , , , , , , 179.566, -0.698, -97.41, -78.300, 13.100, -69.807, 20.47, 0.0058, 0.29733, -0.95471, -0.00067, 406, 100,
 19:40:20.994,e8:da:bf:c6:3e:4f, 2015-01-01 00:58:21.980, 0.285, -0.029, -0.859, 2.197, 2.258, 70.74, , , , , , , 179.572, -0.753, -98.163, -78.300, 13.100, -69.807, 20.47, 0.0058, 0.29733, -0.95471, -0.00067, 406, 100,
 19:40:20.994,e8:da:bf:c6:3e:4f, 2015-01-01 00:58:21.980, 0.912, -0.014, -1.054, 0.793, 4.456, 72.083, , , , , , , 179.599, -0.791, -98.866, -78.300, 13.100, -69.807, 20.47, 0.0058, 0.29733, -0.95471, -0.00067, 406, 100,
 19:40:20.994,e8:da:bf:c6:3e:4f, 2015-01-01 00:58:21.980, 1.849, 0.026, -1.314, -2.197, -5.493, 63.904, , , , , , , 179.594, -0.797, -99.586, -78.300, 13.100, -69.807, 20.47, 0.0058, 0.29733, -0.95471, -0.00067, 406, 100,
 19:40:21.184,e8:da:bf:c6:3e:4f, 2015-01-01 00:58:21.980, 1.84, 0.06, -1.089, -5.249, 0, 14.771, , , , , , , 179.555, -0.769, -99.948, -78.300, 13.100, -69.807, 20.47, 0.00763, 0.6427, -0.76602, -0.00122, 406, 100,
 19:40:21.205,e8:da:bf:c6:3e:4f, 2015-01-01 00:58:22.340, 1.74, 0.033, -0.646, 1.099, -1.343, -1.587, , , , , , , 179.533, -0.769, -99.998, -78.300, 13.100, -69.807, 20.47, 0.00763, 0.6427, -0.76602, -0.00122, 406, 100,
 19:40:21.205,e8:da:bf:c6:3e:4f, 2015-01-01 00:58:22.340, 1.075, 0.033, -0.62, 5.371, -3.967, -34.79, , , , , , , 179.572, -0.731, -99.811, -78.300, 13.100, -69.807, 20.47, 0.00763, 0.6427, -0.76602, -0.00122, 406, 100,
 19:40:21.205,e8:da:bf:c6:3e:4f, 2015-01-01 00:58:22.340, 0.347, 0.028, -0.988, 3.052, -0.488, -48.34, , , , , , , 179.61, -0.714, -99.366, -78.300, 13.100, -69.807, 20.47, 0.00763, 0.6427, -0.76602, -0.00122, 406, 100,
 19:40:21.221,e8:da:bf:c6:3e:4f, 2015-01-01 00:58:22.340, -0.109, 0.011, -1.254, -0.854, -0.671, -51.147, , , , , , , 179.615, -0.698, -98.871, -78.300, 13.100, -69.807, 20.47, 0.00763, 0.6427, -0.76602, -0.00122, 406, 100,
 19:40:21.221,e8:da:bf:c6:3e:4f, 2015-01-01 00:58:22.340, -0.54, -0.009, -1.157, -2.686, -3.662, -51.88, , , , , , , 179.588, -0.681, -98.355, -78.300, 13.100, -69.807, 20.47, 0.00763, 0.6427, -0.76602, -0.00122, 406, 100,
 19:40:21.221,e8:da:bf:c6:3e:4f, 2015-01-01 00:58:22.340, -1.361, -0.028, -0.93, -0.183, -2.38, -47.302, , , , , , , 179.572, -0.632, -97.844, -78.300, 13.100, -69.807, 20.47, 0.00763, 0.6427, -0.76602, -0.00122, 406, 100,
 19:40:21.221,e8:da:bf:c6:3e:4f, 2015-01-01 00:58:22.340, -1.633, -0.049, -0.928, 0.183, -1.221, -12.146, , , , , , , 179.572, -0.615, -97.559, -78.300, 13.100, -69.807, 20.47, 0.00763, 0.6427, -0.76602, -0.00122, 406, 100,
 19:40:21.221,e8:da:bf:c6:3e:4f, 2015-01-01 00:58:22.340, -1.593, -0.041, -1.016, -1.404, 0.793, 9.338, , , , , , , 179.566, -0.61, -97.564, -78.300, 13.100, -69.807, 20.47, 0.00763, 0.6427, -0.76602, -0.00122, 406, 100,
 19:40:21.221,e8:da:bf:c6:3e:4f, 2015-01-01 00:58:22.340, -1.031, -0.055, -0.958, -0.977, 4.578, 37.781, , , , , , , 179.555, -0.643, -97.817, -78.300, 13.100, -69.807, 20.47, 0.00763, 0.6427, -0.76602, -0.00122, 406, 100,
 19:40:21.221,e8:da:bf:c6:3e:4f, 2015-01-01 00:58:22.340, -0.435, -0.063, -0.796, 1.282, 3.296, 49.133, , , , , , , 179.555, -0.692, -98.278, -78.300, 13.100, -69.807, 20.47, 0.00763, 0.6427, -0.76602, -0.00122, 406, 100,
 19:40:21.221,e8:da:bf:c6:3e:4f, 2015-01-01 00:58:22.340, -0.045, -0.031, -0.812, 3.845, 3.418, 52.795, , , , , , , 179.594, -0.736, -98.784, -78.300, 13.100, -69.807, 20.47, 0.00763, 0.6427, -0.76602, -0.00122, 406, 100,
 19:40:21.222,e8:da:bf:c6:3e:4f, 2015-01-01 00:58:22.340, 0.137, 0.01, -1.138, 0.305, -0.366, 54.993, , , , , , , 179.621, -0.747, -99.333, -78.300, 13.100, -69.807, 20.47, 0.00763, 0.6427, -0.76602, -0.00122, 406, 100,
 19:40:21.222,e8:da:bf:c6:3e:4f, 2015-01-01 00:58:22.340, 0.381, 0.006, -1.294, -3.967, 3.174, 56.396, , , , , , , 179.604, -0.775, -99.888, -78.300, 13.100, -69.807, 20.47, 0.00763, 0.6427, -0.76602, -0.00122, 406, 100,
 19:40:21.222,e8:da:bf:c6:3e:4f, 2015-01-01 00:58:22.340, 1.135, -0.02, -1.092, -3.235, -2.502, 56.763, , , , , , , 179.566, -0.791, -100.47, -78.300, 13.100, -69.807, 20.47, 0.00763, 0.6427, -0.76602, -0.00122, 406, 100,
 19:40:21.222,e8:da:bf:c6:3e:4f, 2015-01-01 00:58:22.340, 1.38, -0.01, -0.797, -0.122, -0.732, 25.33, , , , , , , 179.561, -0.769, -100.887, -78.300, 13.100, -69.807, 20.47, 0.00763, 0.6427, -0.76602, -0.00122, 406, 100,
 19:40:21.222,e8:da:bf:c6:3e:4f, 2015-01-01 00:58:22.340, 1.483, 0.018, -0.754, 2.014, 0.671, 6.165, , , , , , , 179.572, -0.775, -101.014, -78.300, 13.100, -69.807, 20.47, 0.00763, 0.6427, -0.76602, -0.00122, 406, 100,
 19:40:21.222,e8:da:bf:c6:3e:4f, 2015-01-01 00:58:22.340, 1.261, 0.063, -0.95, 1.526, -2.502, -15.747, , , , , , , 179.594, -0.764, -100.975, -78.300, 13.100, -69.807, 20.47, 0.00763, 0.6427, -0.76602, -0.00122, 406, 100,
 19:40:21.222,e8:da:bf:c6:3e:4f, 2015-01-01 00:58:22.340, 0.799, 0.07, -1.086, -0.671, -2.502, -35.889, , , , , , , 179.594, -0.736, -100.695, -78.300, 13.100, -69.807, 20.47, 0.00763, 0.6427, -0.76602, -0.00122, 406, 100,
 19:40:21.222,e8:da:bf:c6:3e:4f, 2015-01-01 00:58:22.340, 0.303, 0.024, -0.979, 0.183, -0.854, -45.776, , , , , , , 179.583, -0.709, -100.283, -78.300, 13.100, -69.807, 20.47, 0.00763, 0.6427, -0.76602, -0.00122, 406, 100,
 19:40:21.284,e8:da:bf:c6:3e:4f, 2015-01-01 00:58:22.340, -0.071, -0.022, -0.859, 2.136, -0.671, -51.697, , , , , , , 179.594, -0.703, -99.783, -78.300, 13.100, -69.807, 20.47, 0.00763, 0.6427, -0.76602, -0.00122, 406, 100,
 19:40:21.284,e8:da:bf:c6:3e:4f, 2015-01-01 00:58:22.340, -0.21, -0.032, -0.963, 2.258, 0.122, -47.913, , , , , , , 179.61, -0.698, -99.283, -78.300, 13.100, -69.807, 20.47, 0.00763, 0.6427, -0.76602, -0.00122, 406, 100,
 19:40:21.284,e8:da:bf:c6:3e:4f, 2015-01-01 00:58:22.340, -0.161, -0.011, -1.17, -1.16, 0.366, -40.039, , , , , , , 179.615, -0.698, -98.849, -78.300, 13.100, -69.807, 20.47, 0.00763, 0.6427, -0.76602, -0.00122, 406, 100,
 19:40:21.284,e8:da:bf:c6:3e:4f, 2015-01-01 00:58:22.340, -0.196, 0.002, -1.104, -2.38, -2.38, -38.452, , , , , , , 179.588, -0.687, -98.47, -78.300, 13.100, -69.807, 20.47, 0.00763, 0.6427, -0.76602, -0.00122, 406, 100,
 19:40:21.300,e8:da:bf:c6:3e:4f, 2015-01-01 00:58:22.340, -0.674, -0.007, -0.841, 0.061, -1.892, -42.236, , , , , , , 179.572, -0.654, -98.058, -78.300, 13.100, -69.807, 20.47, 0.00763, 0.6427, -0.76602, -0.00122, 406, 100,
 19:40:21.300,e8:da:bf:c6:3e:4f, 2015-01-01 00:58:22.340, -1.019, -0.025, -0.812, 2.441, -0.366, -26.55, , , , , , , 179.588, -0.643, -97.707, -78.300, 13.100, -69.807, 20.47, 0.00763, 0.6427, -0.76602, -0.00122, 406, 100,
 19:40:21.300,e8:da:bf:c6:3e:4f, 2015-01-01 00:58:22.340, -1.109, -0.017, -1.055, 0.61, -0.183, -8.057, , , , , , , 179.604, -0.637, -97.559, -78.300, 13.100, -69.807, 20.47, 0.00763, 0.6427, -0.76602, -0.00122, 406, 100,
 19:40:21.300,e8:da:bf:c6:3e:4f, 2015-01-01 00:58:22.340, -0.858, -0.018, -1.185, -2.441, 1.953, 8.24, , , , , , , 179.594, -0.648, -97.559, -78.300, 13.100, -69.807, 20.47, 0.00763, 0.6427, -0.76602, -0.00122, 406, 100,
 19:40:21.343,e8:da:bf:c6:3e:4f, 2015-01-01 00:58:22.340, -0.504, -0.037, -0.969, -1.221, 2.258, 22.461, , , , , , , 179.572, -0.676, -97.734, -78.300, 13.100, -69.807, 20.47, 0.00763, 0.6427, -0.76602, -0.00122, 406, 100,
 19:40:21.344,e8:da:bf:c6:3e:4f, 2015-01-01 00:58:22.340, -0.258, -0.036, -0.776, 2.014, 2.502, 26.245, , , , , , , 179.577, -0.698, -97.982, -78.300, 13.100, -69.807, 20.47, 0.00763, 0.6427, -0.76602, -0.00122, 406, 100,
 19:40:21.344,e8:da:bf:c6:3e:4f, 2015-01-01 00:58:22.340, -0.021, -0.001, -0.914, 1.953, 1.587, 32.898, , , , , , , 179.604, -0.725, -98.284, -78.300, 13.100, -69.807, 20.47, 0.00763, 0.6427, -0.76602, -0.00122, 406, 100,
 19:40:21.344,e8:da:bf:c6:3e:4f, 2015-01-01 00:58:22.340, 0.092, 0.035, -1.175, -1.648, 0, 33.02, , , , , , , 179.61, -0.736, -98.619, -78.300, 13.100, -69.807, 20.47, 0.00763, 0.6427, -0.76602, -0.00122, 406, 100,
 19:40:21.459,e8:da:bf:c6:3e:4f, 2015-01-01 00:58:22.340, 0.106, 0.023, -1.132, -3.296, -0.366, 30.029, , , , , , , 179.583, -0.736, -98.937, -78.300, 13.100, -69.807, 20.47, 0.00613, 0.63919, -0.76895, -0.0018, 406, 100,
 19:40:21.459,e8:da:bf:c6:3e:4f, 2015-01-01 00:58:22.665, -0.053, -0.011, -0.832, 0.061, -4.211, 21.973, , , , , , , 179.572, -0.714, -99.201, -78.300, 13.100, -69.807, 20.47, 0.00613, 0.63919, -0.76895, -0.0018, 406, 100,
 19:40:21.459,e8:da:bf:c6:3e:4f, 2015-01-01 00:58:22.665, -1.104, -0.016, -0.746, 3.479, -5.31, 8.545, , , , , , , 179.594, -0.665, -99.349, -78.300, 13.100, -69.807, 20.47, 0.00613, 0.63919, -0.76895, -0.0018, 406, 100,
 19:40:21.459,e8:da:bf:c6:3e:4f, 2015-01-01 00:58:22.665, -1.489, -0.025, -1.034, 3.052, -1.831, 43.152, , , , , , , 179.637, -0.637, -99.575, -78.300, 13.100, -69.807, 20.47, 0.00613, 0.63919, -0.76895, -0.0018, 406, 100,
 19:40:21.489,e8:da:bf:c6:3e:4f, 2015-01-01 00:58:22.665, -1.92, -0.014, -1.349, -5.493, -4.15, 65.063, , , , , , , 179.621, -0.604, -100.184, -78.300, 13.100, -69.807, 20.47, 0.00613, 0.63919, -0.76895, -0.0018, 406, 100,
 19:40:21.489,e8:da:bf:c6:3e:4f, 2015-01-01 00:58:22.665, -1.839, -0.118, -1.109, -3.845, 1.221, 95.032, , , , , , , 179.577, -0.604, -100.948, -78.300, 13.100, -69.807, 20.47, 0.00613, 0.63919, -0.76895, -0.0018, 406, 100,
 19:40:21.489,e8:da:bf:c6:3e:4f, 2015-01-01 00:58:22.665, -1.355, -0.248, -0.655, -1.892, 1.953, 128.113, , , , , , , 179.555, -0.637, -102.129, -78.300, 13.100, -69.807, 20.47, 0.00613, 0.63919, -0.76895, -0.0018, 406, 100,
 19:40:21.490,e8:da:bf:c6:3e:4f, 2015-01-01 00:58:22.665, -0.917, -0.311, -0.619, 4.517, 3.113, 137.756, , , , , , , 179.588, -0.676, -103.447, -78.300, 13.100, -69.807, 20.47, 0.00613, 0.63919, -0.76895, -0.0018, 406, 100,
 19:40:21.490,e8:da:bf:c6:3e:4f, 2015-01-01 00:58:22.665, -0.35, -0.299, -0.894, 3.54, 1.587, 156.616, , , , , , , 179.643, -0.709, -104.947, -78.300, 13.100, -69.807, 20.47, 0.00613, 0.63919, -0.76895, -0.0018, 406, 100,
 19:40:21.490,e8:da:bf:c6:3e:4f, 2015-01-01 00:58:22.665, -0.084, -0.245, -1.234, -0.122, 2.197, 154.48, , , , , , , 179.676, -0.747, -106.507, -78.300, 13.100, -69.807, 20.47, 0.00613, 0.63919, -0.76895, -0.0018, 406, 100,
 19:40:21.490,e8:da:bf:c6:3e:4f, 2015-01-01 00:58:22.665, 0.055, -0.238, -1.329, -4.639, 0.183, 158.02, , , , , , , 179.665, -0.769, -108.073, -78.300, 13.100, -69.807, 20.47, 0.00613, 0.63919, -0.76895, -0.0018, 406, 100,
 19:40:21.490,e8:da:bf:c6:3e:4f, 2015-01-01 00:58:22.665, 0.063, -0.28, -1.02, -3.54, -1.038, 156.25, , , , , , , 179.632, -0.78, -109.649, -78.300, 13.100, -69.807, 20.47, 0.00613, 0.63919, -0.76895, -0.0018, 406, 100,
 19:40:21.506,e8:da:bf:c6:3e:4f, 2015-01-01 00:58:22.665, -0.022, -0.324, -0.682, 1.648, -1.404, 152.649, , , , , , , 179.643, -0.775, -111.193, -78.300, 13.100, -69.807, 20.47, 0.00613, 0.63919, -0.76895, -0.0018, 406, 100,
 19:40:21.506,e8:da:bf:c6:3e:4f, 2015-01-01 00:58:22.665, -0.07, -0.311, -0.805, 2.93, -1.526, 154.175, , , , , , , 179.687, -0.775, -112.725, -78.300, 13.100, -69.807, 20.47, 0.00613, 0.63919, -0.76895, -0.0018, 406, 100,
 19:40:21.506,e8:da:bf:c6:3e:4f, 2015-01-01 00:58:22.665, -0.053, -0.276, -1.146, -0.488, -0.916, 156.799, , , , , , , 179.714, -0.775, -114.285, -78.300, 13.100, -69.807, 20.47, 0.00613, 0.63919, -0.76895, -0.0018, 406, 100,
 19:40:21.506,e8:da:bf:c6:3e:4f, 2015-01-01 00:58:22.665, -0.084, -0.274, -1.229, -3.784, -1.709, 156.738, , , , , , , 179.703, -0.769, -115.856, -78.300, 13.100, -69.807, 20.47, 0.00613, 0.63919, -0.76895, -0.0018, 406, 100,
 19:40:21.549,e8:da:bf:c6:3e:4f, 2015-01-01 00:58:22.665, -0.153, -0.318, -0.95, -1.831, -1.648, 157.41, , , , , , , 179.692, -0.764, -117.427, -78.300, 13.100, -69.807, 20.47, 0.00613, 0.63919, -0.76895, -0.0018, 406, 100,
 19:40:21.550,e8:da:bf:c6:3e:4f, 2015-01-01 00:58:22.665, -0.228, -0.353, -0.759, 1.953, -1.709, 159.912, , , , , , , 179.709, -0.758, -119.02, -78.300, 13.100, -69.807, 20.47, 0.00613, 0.63919, -0.76895, -0.0018, 406, 100,
 19:40:21.550,e8:da:bf:c6:3e:4f, 2015-01-01 00:58:22.665, -0.306, -0.343, -0.941, 1.16, -1.282, 163.025, , , , , , , 179.747, -0.758, -120.635, -78.300, 13.100, -69.807, 20.47, 0.00613, 0.63919, -0.76895, -0.0018, 406, 100,
 19:40:21.550,e8:da:bf:c6:3e:4f, 2015-01-01 00:58:22.665, -0.227, -0.333, -1.158, -1.892, -0.244, 169.617, , , , , , , 179.758, -0.764, -122.3, -78.300, 13.100, -69.807, 20.47, 0.00613, 0.63919, -0.76895, -0.0018, 406, 100,
 19:40:21.664,e8:da:bf:c6:3e:4f, 2015-01-01 00:58:22.665, -0.175, -0.35, -1.076, -2.686, -0.488, 173.279, , , , , , , 179.747, -0.764, -124.03, -78.300, 13.100, -69.807, 20.47, 0.00613, 0.63919, -0.76895, -0.0018, 406, 100,
 19:40:21.664,e8:da:bf:c6:3e:4f, 2015-01-01 00:58:22.665, -0.12, -0.388, -0.855, -0.305, -0.305, 176.025, , , , , , , 179.747, -0.775, -125.771, -78.300, 13.100, -69.807, 20.47, 0.00613, 0.63919, -0.76895, -0.0018, 406, 100,
 19:40:21.664,e8:da:bf:c6:3e:4f, 2015-01-01 00:58:22.665, -0.059, -0.405, -0.833, 1.709, -0.549, 179.077, , , , , , , 179.78, -0.78, -127.557, -78.300, 13.100, -69.807, 20.47, 0.00613, 0.63919, -0.76895, -0.0018, 406, 100,
 19:40:21.664,e8:da:bf:c6:3e:4f, 2015-01-01 00:58:22.665, -0.064, -0.39, -1.039, -0.061, -1.099, 178.223, , , , , , , 179.808, -0.786, -129.348, -78.300, 13.100, -69.807, 20.47, 0.00613, 0.63919, -0.76895, -0.0018, 406, 100,
 19:40:21.692,e8:da:bf:c6:3e:4f, 2015-01-01 00:58:22.665, -0.029, -0.384, -1.145, -2.686, -0.061, 180.542, , , , , , , 179.808, -0.78, -131.138, -78.300, 13.100, -69.807, 20.47, 0.00613, 0.63919, -0.76895, -0.0018, 406, 100,
 19:40:21.692,e8:da:bf:c6:3e:4f, 2015-01-01 00:58:22.665, 0.016, -0.402, -1.001, -2.014, -0.549, 181.213, , , , , , , 179.802, -0.791, -132.957, -78.300, 13.100, -69.807, 20.47, 0.00613, 0.63919, -0.76895, -0.0018, 406, 100,
 19:40:21.693,e8:da:bf:c6:3e:4f, 2015-01-01 00:58:22.665, 0.005, -0.42, -0.85, 0.305, -1.038, 179.688, , , , , , , 179.813, -0.791, -134.758, -78.300, 13.100, -69.807, 20.47, 0.00613, 0.63919, -0.76895, -0.0018, 406, 100,
 19:40:21.693,e8:da:bf:c6:3e:4f, 2015-01-01 00:58:22.665, 0.008, -0.417, -0.901, 0.854, -0.854, 180.542, , , , , , , 179.841, -0.797, -136.56, -78.300, 13.100, -69.807, 20.47, 0.00613, 0.63919, -0.76895, -0.0018, 406, 100,
 19:40:21.693,e8:da:bf:c6:3e:4f, 2015-01-01 00:58:22.665, 0.002, -0.398, -1.069, -0.854, -0.793, 180.664, , , , , , , 179.863, -0.791, -138.373, -78.300, 13.100, -69.807, 20.47, 0.00613, 0.63919, -0.76895, -0.0018, 406, 100,
 19:40:21.693,e8:da:bf:c6:3e:4f, 2015-01-01 00:58:22.665, 0.021, -0.398, -1.097, -2.319, -0.916, 181.641, , , , , , , 179.863, -0.797, -140.186, -78.300, 13.100, -69.807, 20.47, 0.00613, 0.63919, -0.76895, -0.0018, 406, 100,
 19:40:21.693,e8:da:bf:c6:3e:4f, 2015-01-01 00:58:22.665, -0.01, -0.415, -0.953, -1.221, -1.404, 180.603, , , , , , , 179.863, -0.786, -142.004, -78.300, 13.100, -69.807, 20.47, 0.00613, 0.63919, -0.76895, -0.0018, 406, 100,
 19:40:21.693,e8:da:bf:c6:3e:4f, 2015-01-01 00:58:22.665, -0.01, -0.429, -0.87, 0.671, -1.282, 181.641, , , , , , , 179.885, -0.786, -143.811, -78.300, 13.100, -69.807, 20.47, 0.00613, 0.63919, -0.76895, -0.0018, 406, 100,
 19:40:21.693,e8:da:bf:c6:3e:4f, 2015-01-01 00:58:22.665, 0.006, -0.421, -0.969, 0.122, -1.099, 182.739, , , , , , , 179.907, -0.775, -145.64, -78.300, 13.100, -69.807, 20.47, 0.00613, 0.63919, -0.76895, -0.0018, 406, 100,
 19:40:21.693,e8:da:bf:c6:3e:4f, 2015-01-01 00:58:22.665, -0.031, -0.406, -1.077, -1.404, -1.831, 181.641, , , , , , , 179.918, -0.769, -147.464, -78.300, 13.100, -69.807, 20.47, 0.00613, 0.63919, -0.76895, -0.0018, 406, 100,
 19:40:21.693,e8:da:bf:c6:3e:4f, 2015-01-01 00:58:22.665, -0.011, -0.404, -1.036, -1.831, -0.732, 183.655, , , , , , , 179.918, -0.758, -149.293, -78.300, 13.100, -69.807, 20.47, 0.00613, 0.63919, -0.76895, -0.0018, 406, 100,
 19:40:21.694,e8:da:bf:c6:3e:4f, 2015-01-01 00:58:22.665, 0, -0.414, -0.909, -0.488, -0.916, 183.594, , , , , , , 179.923, -0.764, -151.133, -78.300, 13.100, -69.807, 20.47, 0.00613, 0.63919, -0.76895, -0.0018, 406, 100,
 19:40:21.750,e8:da:bf:c6:3e:4f, 2015-01-01 00:58:22.665, 0.007, -0.425, -0.887, 0.793, -0.793, 183.228, , , , , , , 179.951, -0.753, -152.968, -78.300, 13.100, -69.807, 20.47, 0.00525, 0.21011, -0.9776, -0.00089, 406, 100,
 19:40:21.750,e8:da:bf:c6:3e:4f, 2015-01-01 00:58:22.665, 0.051, -0.432, -1.015, 0, -0.549, 184.937, , , , , , , 179.973, -0.758, -154.814, -78.300, 13.100, -69.807, 20.47, 0.00525, 0.21011, -0.9776, -0.00089, 406, 100,
 19:40:21.750,e8:da:bf:c6:3e:4f, 2015-01-01 00:58:22.665, 0.021, -0.43, -1.1, -1.77, -0.488, 184.448, , , , , , , 179.978, -0.753, -156.66, -78.300, 13.100, -69.807, 20.47, 0.00525, 0.21011, -0.9776, -0.00089, 406, 100,
 19:40:21.750,e8:da:bf:c6:3e:4f, 2015-01-01 00:58:22.665, 0.748, -0.43, -0.97, -1.282, 4.883, 197.815, , , , , , , 179.978, -0.791, -158.555, -78.300, 13.100, -69.807, 20.47, 0.00525, 0.21011, -0.9776, -0.00089, 406, 100,
 19:40:21.767,e8:da:bf:c6:3e:4f, 2015-01-01 00:58:22.665, 2.99, -0.412, -0.881, 6.958, -7.629, 209.106, , , , , , , -179.978, -0.797, -160.67, -78.300, 13.100, -69.807, 20.47, 0.00525, 0.21011, -0.9776, -0.00089, 406, 100,
 19:40:21.767,e8:da:bf:c6:3e:4f, 2015-01-01 00:58:22.665, 3.584, -0.207, -0.979, 1.648, 3.296, 118.042, , , , , , , -179.901, -0.758, -162.268, -78.300, 13.100, -69.807, 20.47, 0.00525, 0.21011, -0.9776, -0.00089, 406, 100,
 19:40:21.767,e8:da:bf:c6:3e:4f, 2015-01-01 00:58:22.665, 4.384, -0.1, -1.119, -0.793, 0.366, 89.478, , , , , , , -179.901, -0.807, -163.279, -78.300, 13.100, -69.807, 20.47, 0.00525, 0.21011, -0.9776, -0.00089, 406, 100,
 19:40:21.767,e8:da:bf:c6:3e:4f, 2015-01-01 00:58:22.665, 3.608, 0.016, -1.042, -1.404, -4.639, 4.456, , , , , , , -179.907, -0.764, -163.74, -78.300, 13.100, -69.807, 20.47, 0.00525, 0.21011, -0.9776, -0.00089, 406, 100,
 19:40:21.811,e8:da:bf:c6:3e:4f, 2015-01-01 00:58:23.025, 2.753, 0, -0.842, 0.488, -7.019, -38.391, , , , , , , -179.918, -0.72, -163.499, -78.300, 13.100, -69.807, 20.47, 0.00525, 0.21011, -0.9776, -0.00089, 406, 100,
 19:40:21.811,e8:da:bf:c6:3e:4f, 2015-01-01 00:58:23.025, 1.181, -0.008, -0.808, 1.953, -5.859, -89.722, , , , , , , -179.901, -0.632, -162.839, -78.300, 13.100, -69.807, 20.47, 0.00525, 0.21011, -0.9776, -0.00089, 406, 100,
 19:40:21.811,e8:da:bf:c6:3e:4f, 2015-01-01 00:58:23.025, 0.03, -0.018, -0.995, -0.183, -0.732, -99.182, , , , , , , -179.901, -0.626, -161.856, -78.300, 13.100, -69.807, 20.47, 0.00525, 0.21011, -0.9776, -0.00089, 406, 100,
 19:40:21.812,e8:da:bf:c6:3e:4f, 2015-01-01 00:58:23.025, -0.615, -0.039, -1.216, -3.052, -3.906, -94.788, , , , , , , -179.929, -0.615, -160.889, -78.300, 13.100, -69.807, 20.47, 0.00525, 0.21011, -0.9776, -0.00089, 406, 100,
 19:40:21.915,e8:da:bf:c6:3e:4f, 2015-01-01 00:58:23.025, -1.461, -0.084, -1.17, -4.578, -5.981, -88.867, , , , , , , -179.978, -0.549, -159.966, -78.300, 13.100, -69.807, 20.47, 0.00525, 0.21011, -0.9776, -0.00089, 406, 100,
 19:40:21.977,e8:da:bf:c6:3e:4f, 2015-01-01 00:58:23.025, -2.045, -0.128, -0.99, -4.761, -1.892, -58.044, , , , , , , 179.967, -0.516, -159.23, -78.300, 13.100, -69.807, 20.47, 0.00525, 0.21011, -0.9776, -0.00089, 406, 100,
 19:40:21.978,e8:da:bf:c6:3e:4f, 2015-01-01 00:58:23.025, -2.413, -0.118, -0.799, -0.549, 0, -27.344, , , , , , , 179.94, -0.5, -158.829, -78.300, 13.100, -69.807, 20.47, 0.00525, 0.21011, -0.9776, -0.00089, 406, 100,
 19:40:21.978,e8:da:bf:c6:3e:4f, 2015-01-01 00:58:23.025, -2.047, -0.073, -0.773, 2.197, 3.662, 12.207, , , , , , , 179.951, -0.522, -158.763, -78.300, 13.100, -69.807, 20.47, 0.00525, 0.21011, -0.9776, -0.00089, 406, 100,
 19:40:21.994,e8:da:bf:c6:3e:4f, 2015-01-01 00:58:23.025, -1.331, -0.025, -0.886, 1.892, 6.897, 44.861, , , , , , , 179.978, -0.582, -159.099, -78.300, 13.100, -69.807, 20.47, 0.00525, 0.21011, -0.9776, -0.00089, 406, 100,
 19:40:21.994,e8:da:bf:c6:3e:4f, 2015-01-01 00:58:23.025, -0.551, -0.038, -0.944, 1.648, 7.751, 62.012, , , , , , , -180, -0.659, -159.642, -78.300, 13.100, -69.807, 20.47, 0.00525, 0.21011, -0.9776, -0.00089, 406, 100,
 19:40:21.994,e8:da:bf:c6:3e:4f, 2015-01-01 00:58:23.025, -0.008, -0.071, -1.025, 1.709, 4.15, 69.763, , , , , , , -179.978, -0.725, -160.318, -78.300, 13.100, -69.807, 20.47, 0.00525, 0.21011, -0.9776, -0.00089, 406, 100,
 19:40:21.994,e8:da:bf:c6:3e:4f, 2015-01-01 00:58:23.025, 0.206, -0.078, -1.164, -0.427, 0.061, 67.993, , , , , , , -179.962, -0.736, -161.01, -78.300, 13.100, -69.807, 20.47, 0.00525, 0.21011, -0.9776, -0.00089, 406, 100,
 19:40:21.994,e8:da:bf:c6:3e:4f, 2015-01-01 00:58:23.025, 0.819, -0.059, -1.096, -1.709, 5.859, 72.693, , , , , , , -179.973, -0.775, -161.708, -78.300, 13.100, -69.807, 20.47, 0.00525, 0.21011, -0.9776, -0.00089, 406, 100,
 19:40:21.994,e8:da:bf:c6:3e:4f, 2015-01-01 00:58:23.025, 1.882, -0.008, -0.932, 2.319, -6.714, 64.575, , , , , , , -179.962, -0.764, -162.438, -78.300, 13.100, -69.807, 20.47, 0.00525, 0.21011, -0.9776, -0.00089, 406, 100,
 19:40:21.994,e8:da:bf:c6:3e:4f, 2015-01-01 00:58:23.025, 2.078, 0.063, -0.931, -0.183, 0.732, 14.587, , , , , , , -179.945, -0.736, -162.801, -78.300, 13.100, -69.807, 20.47, 0.00525, 0.21011, -0.9776, -0.00089, 406, 100,
 19:40:21.994,e8:da:bf:c6:3e:4f, 2015-01-01 00:58:23.025, 2.005, 0.048, -0.981, -0.122, -2.136, -6.775, , , , , , , -179.951, -0.742, -162.828, -78.300, 13.100, -69.807, 20.47, 0.00525, 0.21011, -0.9776, -0.00089, 406, 100,
 19:40:21.995,e8:da:bf:c6:3e:4f, 2015-01-01 00:58:23.025, 1.271, 0.007, -0.96, -0.549, -3.845, -47.668, , , , , , , -179.956, -0.698, -162.526, -78.300, 13.100, -69.807, 20.47, 0.00525, 0.21011, -0.9776, -0.00089, 406, 100,
 19:40:21.995,e8:da:bf:c6:3e:4f, 2015-01-01 00:58:23.025, 0.607, -0.047, -0.861, 1.831, -0.366, -58.411, , , , , , , -179.956, -0.681, -161.977, -78.300, 13.100, -69.807, 20.47, 0.00525, 0.21011, -0.9776, -0.00089, 406, 100,
 19:40:21.995,e8:da:bf:c6:3e:4f, 2015-01-01 00:58:23.025, 0.101, -0.021, -0.99, 1.526, -1.343, -68.97, , , , , , , -179.934, -0.67, -161.34, -78.300, 13.100, -69.807, 20.47, 0.00525, 0.21011, -0.9776, -0.00089, 406, 100,
 19:40:21.995,e8:da:bf:c6:3e:4f, 2015-01-01 00:58:23.025, -0.251, 0, -1.197, -2.625, 0.977, -72.693, , , , , , , -179.951, -0.676, -160.62, -78.300, 13.100, -69.807, 20.47, 0.00525, 0.21011, -0.9776, -0.00089, 406, 100,
 19:40:22.019,e8:da:bf:c6:3e:4f, 2015-01-01 00:58:23.025, -0.472, -0.03, -1.096, -3.113, -2.93, -64.758, , , , , , , -179.989, -0.67, -159.933, -78.300, 13.100, -69.807, 20.47, 0.00525, 0.21011, -0.9776, -0.00089, 406, 100,
 19:40:22.019,e8:da:bf:c6:3e:4f, 2015-01-01 00:58:23.025, -0.85, -0.072, -0.879, -0.671, -5.432, -56.213, , , , , , , 179.989, -0.615, -159.34, -78.300, 13.100, -69.807, 20.47, 0.00525, 0.21011, -0.9776, -0.00089, 406, 100,
 19:40:22.020,e8:da:bf:c6:3e:4f, 2015-01-01 00:58:23.025, -1.525, -0.08, -0.894, -0.244, -1.892, -46.387, , , , , , , 179.978, -0.577, -158.818, -78.300, 13.100, -69.807, 20.47, 0.00525, 0.21011, -0.9776, -0.00089, 406, 100,
 19:40:22.020,e8:da:bf:c6:3e:4f, 2015-01-01 00:58:23.025, -1.759, -0.062, -1.004, -0.671, -0.671, -15.869, , , , , , , 179.973, -0.566, -158.516, -78.300, 13.100, -69.807, 20.47, 0.00525, 0.21011, -0.9776, -0.00089, 406, 100,
 19:40:22.075,e8:da:bf:c6:3e:4f, 2015-01-01 00:58:23.025, -1.543, -0.025, -0.979, -0.977, 2.075, 12.695, , , , , , , 179.962, -0.577, -158.527, -78.300, 13.100, -69.807, 20.47, 0.00525, 0.21011, -0.9776, -0.00089, 406, 100,
 19:40:22.075,e8:da:bf:c6:3e:4f, 2015-01-01 00:58:23.025, -0.998, -0.027, -0.828, 1.282, 4.822, 35.767, , , , , , , 179.967, -0.615, -158.791, -78.300, 13.100, -69.807, 20.47, 0.00525, 0.21011, -0.9776, -0.00089, 406, 100,
 19:40:22.093,e8:da:bf:c6:3e:4f, 2015-01-01 00:58:23.025, -0.497, -0.041, -0.801, 3.54, 6.104, 46.936, , , , , , , -180, -0.67, -159.219, -78.300, 13.100, -69.807, 20.47, 0.00525, 0.21011, -0.9776, -0.00089, 406, 100,
 19:40:22.093,e8:da:bf:c6:3e:4f, 2015-01-01 00:58:23.025, -0.112, -0.042, -1.04, 1.831, 5.371, 54.138, , , , , , , -179.967, -0.736, -159.73, -78.300, 13.100, -69.807, 20.47, 0.00525, 0.21011, -0.9776, -0.00089, 406, 100,
 19:40:22.117,e8:da:bf:c6:3e:4f, 2015-01-01 00:58:23.025, 0.101, -0.036, -1.254, -2.136, -0.061, 56.763, , , , , , , -179.967, -0.753, -160.296, -78.300, 13.100, -69.807, 20.47, 0.0051, 0.16626, -0.98602, -0.00085, 406, 100,
 19:40:22.133,e8:da:bf:c6:3e:4f, 2015-01-01 00:58:23.025, 0.164, -0.033, -1.117, -2.808, 0.366, 54.016, , , , , , , -179.989, -0.753, -160.851, -78.300, 13.100, -69.807, 20.47, 0.0051, 0.16626, -0.98602, -0.00085, 406, 100,
 19:40:22.134,e8:da:bf:c6:3e:4f, 2015-01-01 00:58:23.025, 0.395, -0.04, -0.792, 0.488, 3.113, 54.26, , , , , , , -179.995, -0.775, -161.389, -78.300, 13.100, -69.807, 20.47, 0.0051, 0.16626, -0.98602, -0.00085, 406, 100,
 19:40:22.134,e8:da:bf:c6:3e:4f, 2015-01-01 00:58:23.025, 1.177, -0.021, -0.744, 4.883, -1.526, 55.847, , , , , , , -179.956, -0.791, -161.955, -78.300, 13.100, -69.807, 20.47, 0.0051, 0.16626, -0.98602, -0.00085, 406, 100,
 19:40:22.158,e8:da:bf:c6:3e:4f, 2015-01-01 00:58:23.025, 1.523, 0.041, -1.091, 1.648, -1.709, 25.513, , , , , , , -179.918, -0.764, -162.372, -78.300, 13.100, -69.807, 20.47, 0.0051, 0.16626, -0.98602, -0.00085, 406, 100,
 19:40:22.158,e8:da:bf:c6:3e:4f, 2015-01-01 00:58:23.025, 1.646, 0.049, -1.323, -3.845, -0.61, 2.686, , , , , , , -179.929, -0.758, -162.482, -78.300, 13.100, -69.807, 20.47, 0.0051, 0.16626, -0.98602, -0.00085, 406, 100,
 19:40:22.159,e8:da:bf:c6:3e:4f, 2015-01-01 00:58:23.025, 1.489, 0.017, -1.08, -3.601, -2.319, -20.02, , , , , , , -179.973, -0.742, -162.4, -78.300, 13.100, -69.807, 20.47, 0.0051, 0.16626, -0.98602, -0.00085, 406, 100,
 19:40:22.159,e8:da:bf:c6:3e:4f, 2015-01-01 00:58:23.025, 1.25, -0.019, -0.725, 1.099, -1.953, -41.26, , , , , , , -179.989, -0.72, -162.07, -78.300, 13.100, -69.807, 20.47, 0.0051, 0.16626, -0.98602, -0.00085, 406, 100,
 19:40:22.191,e8:da:bf:c6:3e:4f, 2015-01-01 00:58:23.380, 1.116, -0.009, -0.731, 3.54, 0.305, -54.321, , , , , , , -179.962, -0.714, -161.592, -78.300, 13.100, -69.807, 20.47, 0.0051, 0.16626, -0.98602, -0.00085, 406, 100,
 19:40:22.191,e8:da:bf:c6:3e:4f, 2015-01-01 00:58:23.380, 1.004, 0.012, -1.004, 1.831, 1.038, -72.327, , , , , , , -179.94, -0.72, -160.944, -78.300, 13.100, -69.807, 20.47, 0.0051, 0.16626, -0.98602, -0.00085, 406, 100,
 19:40:22.191,e8:da:bf:c6:3e:4f, 2015-01-01 00:58:23.380, 1.174, -0.013, -1.215, -1.526, 0.061, -81.177, , , , , , , -179.951, -0.731, -160.175, -78.300, 13.100, -69.807, 20.47, 0.0051, 0.16626, -0.98602, -0.00085, 406, 100,
 19:40:22.191,e8:da:bf:c6:3e:4f, 2015-01-01 00:58:23.380, 1.132, -0.093, -1.102, -2.563, -1.404, -103.333, , , , , , , -179.984, -0.72, -159.258, -78.300, 13.100, -69.807, 20.47, 0.0051, 0.16626, -0.98602, -0.00085, 406, 100,
 19:40:22.232,e8:da:bf:c6:3e:4f, 2015-01-01 00:58:23.380, 0.914, -0.174, -0.873, 0.122, -0.732, -119.446, , , , , , , 179.995, -0.703, -158.132, -78.300, 13.100, -69.807, 20.47, 0.0051, 0.16626, -0.98602, -0.00085, 406, 100,
 19:40:22.233,e8:da:bf:c6:3e:4f, 2015-01-01 00:58:23.380, 0.703, -0.194, -0.812, 2.258, 1.526, -129.944, , , , , , , -180, -0.709, -156.879, -78.300, 13.100, -69.807, 20.47, 0.0051, 0.16626, -0.98602, -0.00085, 406, 100,
 19:40:22.233,e8:da:bf:c6:3e:4f, 2015-01-01 00:58:23.380, 0.606, -0.176, -0.941, 1.892, 2.136, -138.55, , , , , , , -179.989, -0.731, -155.533, -78.300, 13.100, -69.807, 20.47, 0.0051, 0.16626, -0.98602, -0.00085, 406, 100,
 19:40:22.233,e8:da:bf:c6:3e:4f, 2015-01-01 00:58:23.380, 0.516, -0.183, -1.089, -0.061, 0.916, -148.132, , , , , , , -179.995, -0.742, -154.1, -78.300, 13.100, -69.807, 20.47, 0.0051, 0.16626, -0.98602, -0.00085, 406, 100,
 19:40:22.249,e8:da:bf:c6:3e:4f, 2015-01-01 00:58:23.380, 0.33, -0.247, -1.074, -1.038, 0.244, -156.921, , , , , , , 179.984, -0.747, -152.567, -78.300, 13.100, -69.807, 20.47, 0.0051, 0.16626, -0.98602, -0.00085, 406, 100,
 19:40:22.249,e8:da:bf:c6:3e:4f, 2015-01-01 00:58:23.380, 0.187, -0.325, -0.954, 0, 0.244, -158.936, , , , , , , 179.962, -0.742, -150.98, -78.300, 13.100, -69.807, 20.47, 0.0051, 0.16626, -0.98602, -0.00085, 406, 100,
 19:40:22.250,e8:da:bf:c6:3e:4f, 2015-01-01 00:58:23.380, 0.186, -0.352, -0.899, 1.648, 1.404, -158.203, , , , , , , 179.956, -0.753, -149.398, -78.300, 13.100, -69.807, 20.47, 0.0051, 0.16626, -0.98602, -0.00085, 406, 100,
 19:40:22.250,e8:da:bf:c6:3e:4f, 2015-01-01 00:58:23.380, 0.136, -0.316, -1.019, 0.61, 0.549, -163.208, , , , , , , 179.956, -0.758, -147.799, -78.300, 13.100, -69.807, 20.47, 0.0051, 0.16626, -0.98602, -0.00085, 406, 100,
 19:40:22.368,e8:da:bf:c6:3e:4f, 2015-01-01 00:58:23.380, 0.031, -0.29, -1.084, -1.16, 0.793, -166.809, , , , , , , 179.934, -0.764, -146.14, -78.300, 13.100, -69.807, 20.47, 0.0051, 0.16626, -0.98602, -0.00085, 406, 100,
 19:40:22.418,e8:da:bf:c6:3e:4f, 2015-01-01 00:58:23.380, -0.006, -0.306, -0.986, -0.977, 1.16, -165.039, , , , , , , 179.907, -0.764, -144.481, -78.300, 13.100, -69.807, 20.47, 0.0051, 0.16626, -0.98602, -0.00085, 406, 100,
 19:40:22.418,e8:da:bf:c6:3e:4f, 2015-01-01 00:58:23.380, 0.068, -0.341, -0.848, 1.282, 1.648, -161.987, , , , , , , 179.89, -0.78, -142.85, -78.300, 13.100, -69.807, 20.47, 0.0051, 0.16626, -0.98602, -0.00085, 406, 100,
 19:40:22.418,e8:da:bf:c6:3e:4f, 2015-01-01 00:58:23.380, 0.172, -0.354, -0.872, 2.686, 2.014, -162.109, , , , , , , 179.896, -0.791, -141.235, -78.300, 13.100, -69.807, 20.47, 0.0051, 0.16626, -0.98602, -0.00085, 406, 100,
 19:40:22.443,e8:da:bf:c6:3e:4f, 2015-01-01 00:58:23.380, 0.283, -0.34, -1.055, 1.221, 1.465, -163.818, , , , , , , 179.901, -0.807, -139.609, -78.300, 13.100, -69.807, 20.47, 0.0051, 0.16626, -0.98602, -0.00085, 406, 100,
 19:40:22.443,e8:da:bf:c6:3e:4f, 2015-01-01 00:58:23.380, 0.308, -0.33, -1.149, -1.038, 1.587, -169.067, , , , , , , 179.885, -0.813, -137.944, -78.300, 13.100, -69.807, 20.47, 0.0051, 0.16626, -0.98602, -0.00085, 406, 100,
 19:40:22.443,e8:da:bf:c6:3e:4f, 2015-01-01 00:58:23.380, 0.292, -0.351, -1.028, -0.916, 0.854, -174.744, , , , , , , 179.852, -0.824, -136.219, -78.300, 13.100, -69.807, 20.47, 0.0051, 0.16626, -0.98602, -0.00085, 406, 100,
 19:40:22.443,e8:da:bf:c6:3e:4f, 2015-01-01 00:58:23.380, 0.266, -0.385, -0.866, 1.16, 0.244, -178.162, , , , , , , 179.835, -0.818, -134.462, -78.300, 13.100, -69.807, 20.47, 0.0051, 0.16626, -0.98602, -0.00085, 406, 100,
 19:40:22.443,e8:da:bf:c6:3e:4f, 2015-01-01 00:58:23.380, 0.237, -0.398, -0.881, 1.953, 0.793, -181.396, , , , , , , 179.835, -0.818, -132.66, -78.300, 13.100, -69.807, 20.47, 0.0051, 0.16626, -0.98602, -0.00085, 406, 100,
 19:40:22.443,e8:da:bf:c6:3e:4f, 2015-01-01 00:58:23.380, 0.202, -0.399, -1.007, 1.221, 0.732, -183.472, , , , , , , 179.83, -0.818, -130.836, -78.300, 13.100, -69.807, 20.47, 0.0051, 0.16626, -0.98602, -0.00085, 406, 100,
 19:40:22.444,e8:da:bf:c6:3e:4f, 2015-01-01 00:58:23.380, 0.108, -0.408, -1.087, -0.366, 0.366, -187.866, , , , , , , 179.813, -0.818, -128.979, -78.300, 13.100, -69.807, 20.47, 0.0051, 0.16626, -0.98602, -0.00085, 406, 100,
 19:40:22.444,e8:da:bf:c6:3e:4f, 2015-01-01 00:58:23.380, 0.016, -0.433, -1.022, -0.427, -0.122, -189.697, , , , , , , 179.786, -0.802, -127.09, -78.300, 13.100, -69.807, 20.47, 0.0051, 0.16626, -0.98602, -0.00085, 406, 100,
 19:40:22.444,e8:da:bf:c6:3e:4f, 2015-01-01 00:58:23.380, -0.068, -0.452, -0.914, 0.916, 0.854, -190.674, , , , , , , 179.769, -0.802, -125.189, -78.300, 13.100, -69.807, 20.47, 0.0051, 0.16626, -0.98602, -0.00085, 406, 100,
 19:40:22.444,e8:da:bf:c6:3e:4f, 2015-01-01 00:58:23.380, -0.099, -0.446, -0.922, 1.587, 0.977, -187.988, , , , , , , 179.764, -0.802, -123.294, -78.300, 13.100, -69.807, 20.47, 0.0051, 0.16626, -0.98602, -0.00085, 406, 100,
 19:40:22.444,e8:da:bf:c6:3e:4f, 2015-01-01 00:58:23.380, -0.081, -0.42, -1.02, 0.61, 1.099, -184.814, , , , , , , 179.753, -0.802, -121.437, -78.300, 13.100, -69.807, 20.47, 0.0051, 0.16626, -0.98602, -0.00085, 406, 100,
 19:40:22.444,e8:da:bf:c6:3e:4f, 2015-01-01 00:58:23.380, -0.05, -0.401, -1.05, -0.427, 1.099, -182.495, , , , , , , 179.736, -0.802, -119.603, -78.300, 13.100, -69.807, 20.47, 0.0051, 0.16626, -0.98602, -0.00085, 406, 100,
 19:40:22.460,e8:da:bf:c6:3e:4f, 2015-01-01 00:58:23.380, -0.04, -0.409, -0.956, 0.244, 0.977, -181.946, , , , , , , 179.714, -0.807, -117.784, -78.300, 13.100, -69.807, 20.47, 0.00711, 0.56937, -0.82199, -0.00073, 406, 100,
 19:40:22.460,e8:da:bf:c6:3e:4f, 2015-01-01 00:58:23.380, -0.021, -0.421, -0.891, 1.709, 1.099, -180.908, , , , , , , 179.703, -0.802, -115.972, -78.300, 13.100, -69.807, 20.47, 0.00711, 0.56937, -0.82199, -0.00073, 406, 100,
 19:40:22.460,e8:da:bf:c6:3e:4f, 2015-01-01 00:58:23.380, 0.002, -0.416, -0.968, 1.648, 1.038, -180.237, , , , , , , 179.709, -0.802, -114.164, -78.300, 13.100, -69.807, 20.47, 0.00711, 0.56937, -0.82199, -0.00073, 406, 100,
 19:40:22.460,e8:da:bf:c6:3e:4f, 2015-01-01 00:58:23.380, 0.022, -0.401, -1.082, 0, 1.465, -179.993, , , , , , , 179.698, -0.802, -112.368, -78.300, 13.100, -69.807, 20.47, 0.00711, 0.56937, -0.82199, -0.00073, 406, 100,
 19:40:22.574,e8:da:bf:c6:3e:4f, 2015-01-01 00:58:23.740, 0.111, -0.393, -1.076, -0.916, 1.77, -178.04, , , , , , , 179.67, -0.813, -110.577, -78.300, 13.100, -69.807, 20.47, 0.00711, 0.56937, -0.82199, -0.00073, 406, 100,
 19:40:22.596,e8:da:bf:c6:3e:4f, 2015-01-01 00:58:23.740, 0.152, -0.396, -0.958, -0.122, 0.793, -179.993, , , , , , , 179.643, -0.807, -108.792, -78.300, 13.100, -69.807, 20.47, 0.00711, 0.56937, -0.82199, -0.00073, 406, 100,
 19:40:22.596,e8:da:bf:c6:3e:4f, 2015-01-01 00:58:23.740, 0.051, -0.41, -0.855, 1.404, 0.305, -185.547, , , , , , , 179.632, -0.802, -106.963, -78.300, 13.100, -69.807, 20.47, 0.00711, 0.56937, -0.82199, -0.00073, 406, 100,
 19:40:22.596,e8:da:bf:c6:3e:4f, 2015-01-01 00:58:23.740, -0.05, -0.424, -0.901, 2.319, 0.488, -185.913, , , , , , , 179.632, -0.786, -105.101, -78.300, 13.100, -69.807, 20.47, 0.00711, 0.56937, -0.82199, -0.00073, 406, 100,
 19:40:22.597,e8:da:bf:c6:3e:4f, 2015-01-01 00:58:23.740, -0.084, -0.417, -1.053, 0.916, 0.488, -184.021, , , , , , , 179.632, -0.786, -103.255, -78.300, 13.100, -69.807, 20.47, 0.00711, 0.56937, -0.82199, -0.00073, 406, 100,
 19:40:22.597,e8:da:bf:c6:3e:4f, 2015-01-01 00:58:23.740, -0.342, -0.383, -1.092, -0.305, -5.127, -187.317, , , , , , , 179.615, -0.747, -101.409, -78.300, 13.100, -69.807, 20.47, 0.00711, 0.56937, -0.82199, -0.00073, 406, 100,
 19:40:22.597,e8:da:bf:c6:3e:4f, 2015-01-01 00:58:23.740, -2.148, -0.36, -1.064, 0.732, -6.226, -204.651, , , , , , , 179.594, -0.67, -99.432, -78.300, 13.100, -69.807, 20.47, 0.00711, 0.56937, -0.82199, -0.00073, 406, 100,
 19:40:22.598,e8:da:bf:c6:3e:4f, 2015-01-01 00:58:23.740, -3.147, -0.381, -1.036, 0.549, -6.409, -145.386, , , , , , , 179.599, -0.593, -97.652, -78.300, 13.100, -69.807, 20.47, 0.00711, 0.56937, -0.82199, -0.00073, 406, 100,
 19:40:22.626,e8:da:bf:c6:3e:4f, 2015-01-01 00:58:23.740, -4.031, -0.322, -0.926, -0.488, -4.578, -104.004, , , , , , , 179.583, -0.527, -96.471, -78.300, 13.100, -69.807, 20.47, 0.00711, 0.56937, -0.82199, -0.00073, 406, 100,
 19:40:22.626,e8:da:bf:c6:3e:4f, 2015-01-01 00:58:23.740, -3.742, -0.267, -0.82, 2.93, 3.723, -36.865, , , , , , , 179.604, -0.516, -95.751, -78.300, 13.100, -69.807, 20.47, 0.00711, 0.56937, -0.82199, -0.00073, 406, 100,
 19:40:22.626,e8:da:bf:c6:3e:4f, 2015-01-01 00:58:23.740, -2.729, -0.179, -0.876, -1.526, 7.568, 17.029, , , , , , , 179.604, -0.577, -95.729, -78.300, 13.100, -69.807, 20.47, 0.00711, 0.56937, -0.82199, -0.00073, 406, 100,
 19:40:22.626,e8:da:bf:c6:3e:4f, 2015-01-01 00:58:23.740, -1.202, -0.107, -1.002, -2.441, 10.498, 62.195, , , , , , , 179.594, -0.687, -96.141, -78.300, 13.100, -69.807, 20.47, 0.00711, 0.56937, -0.82199, -0.00073, 406, 100,
 19:40:22.626,e8:da:bf:c6:3e:4f, 2015-01-01 00:58:23.740, -0.038, -0.045, -0.937, -1.221, 5.798, 77.454, , , , , , , 179.572, -0.758, -96.894, -78.300, 13.100, -69.807, 20.47, 0.00711, 0.56937, -0.82199, -0.00073, 406, 100,
 19:40:22.626,e8:da:bf:c6:3e:4f, 2015-01-01 00:58:23.740, 0.457, -0.008, -0.942, 1.831, 2.869, 69.519, , , , , , , 179.588, -0.797, -97.625, -78.300, 13.100, -69.807, 20.47, 0.00711, 0.56937, -0.82199, -0.00073, 406, 100,
 19:40:22.626,e8:da:bf:c6:3e:4f, 2015-01-01 00:58:23.740, 1.229, 0.004, -1.177, -0.732, 1.648, 69.641, , , , , , , 179.604, -0.835, -98.317, -78.300, 13.100, -69.807, 20.47, 0.00711, 0.56937, -0.82199, -0.00073, 406, 100,
 19:40:22.627,e8:da:bf:c6:3e:4f, 2015-01-01 00:58:23.740, 1.623, 0.041, -1.262, -4.089, -3.235, 42.786, , , , , , , 179.588, -0.818, -98.904, -78.300, 13.100, -69.807, 20.47, 0.00711, 0.56937, -0.82199, -0.00073, 406, 100,
 19:40:22.683,e8:da:bf:c6:3e:4f, 2015-01-01 00:58:23.740, 1.618, 0.037, -0.923, -3.174, -0.61, 12.695, , , , , , , 179.544, -0.807, -99.141, -78.300, 13.100, -69.807, 20.47, 0.00711, 0.56937, -0.82199, -0.00073, 406, 100,
 19:40:22.683,e8:da:bf:c6:3e:4f, 2015-01-01 00:58:23.740, 1.357, 0.027, -0.607, 3.052, -2.808, -6.653, , , , , , , 179.55, -0.786, -99.179, -78.300, 13.100, -69.807, 20.47, 0.00711, 0.56937, -0.82199, -0.00073, 406, 100,
 19:40:22.684,e8:da:bf:c6:3e:4f, 2015-01-01 00:58:23.740, 0.734, 0.032, -0.746, 4.578, -0.916, -30.273, , , , , , , 179.594, -0.764, -98.97, -78.300, 13.100, -69.807, 20.47, 0.00711, 0.56937, -0.82199, -0.00073, 406, 100,
 19:40:22.684,e8:da:bf:c6:3e:4f, 2015-01-01 00:58:23.740, 0.265, 0.028, -1.125, 1.404, -1.282, -39.124, , , , , , , 179.621, -0.753, -98.613, -78.300, 13.100, -69.807, 20.47, 0.00711, 0.56937, -0.82199, -0.00073, 406, 100,
 19:40:22.700,e8:da:bf:c6:3e:4f, 2015-01-01 00:58:23.740, -0.064, 0.006, -1.217, -1.77, -0.122, -45.471, , , , , , , 179.61, -0.736, -98.185, -78.300, 13.100, -69.807, 20.47, 0.00711, 0.56937, -0.82199, -0.00073, 406, 100,
 19:40:22.700,e8:da:bf:c6:3e:4f, 2015-01-01 00:58:23.740, -0.298, -0.021, -1.044, -1.343, -0.671, -44.128, , , , , , , 179.588, -0.731, -97.734, -78.300, 13.100, -69.807, 20.47, 0.00711, 0.56937, -0.82199, -0.00073, 406, 100,
 19:40:22.700,e8:da:bf:c6:3e:4f, 2015-01-01 00:58:23.740, -0.792, -0.016, -0.867, 0.549, -4.272, -40.405, , , , , , , 179.583, -0.698, -97.317, -78.300, 13.100, -69.807, 20.47, 0.00711, 0.56937, -0.82199, -0.00073, 406, 100,
 19:40:22.700,e8:da:bf:c6:3e:4f, 2015-01-01 00:58:23.740, -1.348, -0.004, -0.937, 1.221, -1.465, -25.513, , , , , , , 179.588, -0.67, -96.976, -78.300, 13.100, -69.807, 20.47, 0.00711, 0.56937, -0.82199, -0.00073, 406, 100,
 19:40:22.775,e8:da:bf:c6:3e:4f, 2015-01-01 00:58:23.740, -1.513, -0.002, -1.154, -2.258, -0.916, 0.977, , , , , , , 179.583, -0.654, -96.872, -78.300, 13.100, -69.807, 20.47, 0.00711, 0.56937, -0.82199, -0.00073, 406, 100,
 19:40:22.792,e8:da:bf:c6:3e:4f, 2015-01-01 00:58:23.740, -1.291, -0.033, -1.099, -3.845, 2.258, 23.132, , , , , , , 179.55, -0.665, -97.004, -78.300, 13.100, -69.807, 20.47, 0.00711, 0.56937, -0.82199, -0.00073, 406, 100,
 19:40:22.793,e8:da:bf:c6:3e:4f, 2015-01-01 00:58:23.740, -0.629, -0.083, -0.806, -0.305, 5.127, 44.617, , , , , , , 179.533, -0.709, -97.366, -78.300, 13.100, -69.807, 20.47, 0.00763, 0.64142, -0.76709, -0.00082, 406, 100,
 19:40:22.793,e8:da:bf:c6:3e:4f, 2015-01-01 00:58:23.740, -0.127, -0.079, -0.605, 5.127, 4.089, 51.575, , , , , , , 179.566, -0.753, -97.866, -78.300, 13.100, -69.807, 20.47, 0.00763, 0.64142, -0.76709, -0.00082, 406, 100,
 19:40:22.809,e8:da:bf:c6:3e:4f, 2015-01-01 00:58:23.740, 0.104, -0.011, -0.958, 4.272, -0.488, 51.636, , , , , , , 179.626, -0.775, -98.383, -78.300, 13.100, -69.807, 20.47, 0.00763, 0.64142, -0.76709, -0.00082, 406, 100,
 19:40:22.809,e8:da:bf:c6:3e:4f, 2015-01-01 00:58:23.740, 0.216, 0.033, -1.42, -3.174, 2.991, 53.101, , , , , , , 179.637, -0.791, -98.904, -78.300, 13.100, -69.807, 20.47, 0.00763, 0.64142, -0.76709, -0.00082, 406, 100,
 19:40:22.809,e8:da:bf:c6:3e:4f, 2015-01-01 00:58:23.740, 0.923, 0.017, -1.365, -6.592, 0.732, 59.753, , , , , , , 179.583, -0.818, -99.476, -78.300, 13.100, -69.807, 20.47, 0.00763, 0.64142, -0.76709, -0.00082, 406, 100,
 19:40:22.809,e8:da:bf:c6:3e:4f, 2015-01-01 00:58:23.740, 1.365, -0.006, -0.876, -2.441, -2.38, 35.889, , , , , , , 179.544, -0.797, -99.981, -78.300, 13.100, -69.807, 20.47, 0.00763, 0.64142, -0.76709, -0.00082, 406, 100,
 19:40:22.839,e8:da:bf:c6:3e:4f, 2015-01-01 00:58:23.740, 1.482, -0.009, -0.557, 2.686, 0.793, 8.667, , , , , , , 179.55, -0.797, -100.168, -78.300, 13.100, -69.807, 20.47, 0.00763, 0.64142, -0.76709, -0.00082, 406, 100,
 19:40:22.840,e8:da:bf:c6:3e:4f, 2015-01-01 00:58:23.740, 1.32, 0.036, -0.77, 4.272, -1.709, -10.132, , , , , , , 179.594, -0.797, -100.168, -78.300, 13.100, -69.807, 20.47, 0.00763, 0.64142, -0.76709, -0.00082, 406, 100,
 19:40:22.840,e8:da:bf:c6:3e:4f, 2015-01-01 00:58:23.740, 0.813, 0.078, -1.158, -0.061, -2.197, -32.288, , , , , , , 179.61, -0.769, -99.932, -78.300, 13.100, -69.807, 20.47, 0.00763, 0.64142, -0.76709, -0.00082, 406, 100,
 19:40:22.840,e8:da:bf:c6:3e:4f, 2015-01-01 00:58:23.740, 0.37, 0.051, -1.157, -2.014, -1.831, -42.236, , , , , , , 179.588, -0.747, -99.553, -78.300, 13.100, -69.807, 20.47, 0.00763, 0.64142, -0.76709, -0.00082, 406, 100,
 19:40:22.856,e8:da:bf:c6:3e:4f, 2015-01-01 00:58:24.065, 0.025, -0.016, -0.867, 0.671, -0.366, -49.194, , , , , , , 179.577, -0.736, -99.091, -78.300, 13.100, -69.807, 20.47, 0.00763, 0.64142, -0.76709, -0.00082, 406, 100,
 19:40:22.856,e8:da:bf:c6:3e:4f, 2015-01-01 00:58:24.065, -0.161, -0.051, -0.773, 3.662, 0.793, -49.194, , , , , , , 179.599, -0.736, -98.591, -78.300, 13.100, -69.807, 20.47, 0.00763, 0.64142, -0.76709, -0.00082, 406, 100,
 19:40:22.856,e8:da:bf:c6:3e:4f, 2015-01-01 00:58:24.065, -0.247, -0.025, -1.041, 1.587, -0.977, -44.434, , , , , , , 179.626, -0.731, -98.124, -78.300, 13.100, -69.807, 20.47, 0.00763, 0.64142, -0.76709, -0.00082, 406, 100,
 19:40:22.856,e8:da:bf:c6:3e:4f, 2015-01-01 00:58:24.065, -0.582, 0.017, -1.223, -2.197, -3.601, -42.48, , , , , , , 179.615, -0.703, -97.701, -78.300, 13.100, -69.807, 20.47, 0.00763, 0.64142, -0.76709, -0.00082, 406, 100,
 19:40:22.929,e8:da:bf:c6:3e:4f, 2015-01-01 00:58:24.065, -1.043, 0.011, -1.078, -2.625, 0.305, -34.18, , , , , , , 179.583, -0.681, -97.3, -78.300, 13.100, -69.807, 20.47, 0.00763, 0.64142, -0.76709, -0.00082, 406, 100,
 19:40:22.929,e8:da:bf:c6:3e:4f, 2015-01-01 00:58:24.065, -1.131, -0.025, -0.896, -0.427, -0.061, -9.644, , , , , , , 179.566, -0.681, -97.103, -78.300, 13.100, -69.807, 20.47, 0.00763, 0.64142, -0.76709, -0.00082, 406, 100,
 19:40:22.930,e8:da:bf:c6:3e:4f, 2015-01-01 00:58:24.065, -1.067, -0.045, -0.858, 0.793, 0.366, 2.563, , , , , , , 179.572, -0.687, -97.081, -78.300, 13.100, -69.807, 20.47, 0.00763, 0.64142, -0.76709, -0.00082, 406, 100,
 19:40:22.930,e8:da:bf:c6:3e:4f, 2015-01-01 00:58:24.065, -0.775, -0.052, -0.924, 1.221, 1.709, 23.01, , , , , , , 179.583, -0.698, -97.229, -78.300, 13.100, -69.807, 20.47, 0.00763, 0.64142, -0.76709, -0.00082, 406, 100,
 19:40:22.989,e8:da:bf:c6:3e:4f, 2015-01-01 00:58:24.065, -0.479, -0.035, -0.977, 1.099, 2.502, 31.067, , , , , , , 179.599, -0.72, -97.509, -78.300, 13.100, -69.807, 20.47, 0.00763, 0.64142, -0.76709, -0.00082, 406, 100,
 19:40:23.017,e8:da:bf:c6:3e:4f, 2015-01-01 00:58:24.065, -0.205, -0.003, -1.041, 0.061, 0.916, 38.33, , , , , , , 179.61, -0.747, -97.866, -78.300, 13.100, -69.807, 20.47, 0.00763, 0.64142, -0.76709, -0.00082, 406, 100,
 19:40:23.017,e8:da:bf:c6:3e:4f, 2015-01-01 00:58:24.065, -0.225, 0.017, -1.072, -1.099, -0.671, 37.048, , , , , , , 179.61, -0.747, -98.251, -78.300, 13.100, -69.807, 20.47, 0.00763, 0.64142, -0.76709, -0.00082, 406, 100,
 19:40:23.017,e8:da:bf:c6:3e:4f, 2015-01-01 00:58:24.065, -0.554, 0.009, -1, -0.916, -4.211, 37.842, , , , , , , 179.599, -0.725, -98.624, -78.300, 13.100, -69.807, 20.47, 0.00763, 0.64142, -0.76709, -0.00082, 406, 100,
 19:40:23.045,e8:da:bf:c6:3e:4f, 2015-01-01 00:58:24.065, -1.127, -0.022, -0.957, 0, -3.662, 44.373, , , , , , , 179.599, -0.687, -99.031, -78.300, 13.100, -69.807, 20.47, 0.00763, 0.64142, -0.76709, -0.00082, 406, 100,
 19:40:23.046,e8:da:bf:c6:3e:4f, 2015-01-01 00:58:24.065, -1.593, -0.063, -1.035, -1.16, -3.052, 63.965, , , , , , , 179.599, -0.659, -99.575, -78.300, 13.100, -69.807, 20.47, 0.00763, 0.64142, -0.76709, -0.00082, 406, 100,
 19:40:23.046,e8:da:bf:c6:3e:4f, 2015-01-01 00:58:24.065, -1.762, -0.12, -1.028, -1.953, -1.587, 90.149, , , , , , , 179.588, -0.637, -100.355, -78.300, 13.100, -69.807, 20.47, 0.00763, 0.64142, -0.76709, -0.00082, 406, 100,
 19:40:23.046,e8:da:bf:c6:3e:4f, 2015-01-01 00:58:24.065, -1.548, -0.188, -0.897, -0.671, 1.953, 117.981, , , , , , , 179.583, -0.648, -101.409, -78.300, 13.100, -69.807, 20.47, 0.00763, 0.64142, -0.76709, -0.00082, 406, 100,
 19:40:23.047,e8:da:bf:c6:3e:4f, 2015-01-01 00:58:24.065, -0.969, -0.25, -0.838, 0.793, 4.639, 143.066, , , , , , , 179.599, -0.698, -102.739, -78.300, 13.100, -69.807, 20.47, 0.00763, 0.64142, -0.76709, -0.00082, 406, 100,
 19:40:23.047,e8:da:bf:c6:3e:4f, 2015-01-01 00:58:24.065, -0.429, -0.292, -0.865, 1.404, 1.892, 153.137, , , , , , , 179.621, -0.747, -104.238, -78.300, 13.100, -69.807, 20.47, 0.00763, 0.64142, -0.76709, -0.00082, 406, 100,
 19:40:23.047,e8:da:bf:c6:3e:4f, 2015-01-01 00:58:24.065, -0.049, -0.296, -0.935, 2.319, 2.319, 158.447, , , , , , , 179.665, -0.78, -105.798, -78.300, 13.100, -69.807, 20.47, 0.00763, 0.64142, -0.76709, -0.00082, 406, 100,
 19:40:23.047,e8:da:bf:c6:3e:4f, 2015-01-01 00:58:24.065, 0.132, -0.276, -1.165, -0.916, -0.549, 159.668, , , , , , , 179.687, -0.802, -107.397, -78.300, 13.100, -69.807, 20.47, 0.00763, 0.64142, -0.76709, -0.00082, 406, 100,
 19:40:23.063,e8:da:bf:c6:3e:4f, 2015-01-01 00:58:24.065, 0.135, -0.265, -1.197, -3.296, -1.404, 155.457, , , , , , , 179.676, -0.797, -108.973, -78.300, 13.100, -69.807, 20.47, 0.00763, 0.64142, -0.76709, -0.00082, 406, 100,
 19:40:23.063,e8:da:bf:c6:3e:4f, 2015-01-01 00:58:24.065, 0.008, -0.278, -0.961, -1.892, -2.014, 149.353, , , , , , , 179.665, -0.791, -110.5, -78.300, 13.100, -69.807, 20.47, 0.00763, 0.64142, -0.76709, -0.00082, 406, 100,
 19:40:23.063,e8:da:bf:c6:3e:4f, 2015-01-01 00:58:24.065, -0.163, -0.293, -0.781, 1.343, -0.977, 147.095, , , , , , , 179.681, -0.78, -111.978, -78.300, 13.100, -69.807, 20.47, 0.00763, 0.64142, -0.76709, -0.00082, 406, 100,
 19:40:23.063,e8:da:bf:c6:3e:4f, 2015-01-01 00:58:24.065, -0.203, -0.292, -0.926, 1.221, -0.793, 152.588, , , , , , , 179.714, -0.786, -113.472, -78.300, 13.100, -69.807, 20.47, 0.00763, 0.64142, -0.76709, -0.00082, 406, 100,
 19:40:23.095,e8:da:bf:c6:3e:4f, 2015-01-01 00:58:24.065, -0.053, -0.289, -1.132, -1.648, -1.038, 161.499, , , , , , , 179.725, -0.786, -115.06, -78.300, 13.100, -69.807, 20.47, 0.00763, 0.64142, -0.76709, -0.00082, 406, 100,
 19:40:23.095,e8:da:bf:c6:3e:4f, 2015-01-01 00:58:24.065, -0.101, -0.299, -1.071, -2.441, -1.953, 156.921, , , , , , , 179.72, -0.78, -116.658, -78.300, 13.100, -69.807, 20.47, 0.00763, 0.64142, -0.76709, -0.00082, 406, 100,
 19:40:23.095,e8:da:bf:c6:3e:4f, 2015-01-01 00:58:24.065, -0.191, -0.333, -0.875, 0.122, -1.343, 158.203, , , , , , , 179.725, -0.769, -118.224, -78.300, 13.100, -69.807, 20.47, 0.00763, 0.64142, -0.76709, -0.00082, 406, 100,
 19:40:23.095,e8:da:bf:c6:3e:4f, 2015-01-01 00:58:24.065, -0.2, -0.352, -0.882, 1.343, -0.916, 164.795, , , , , , , 179.753, -0.769, -119.85, -78.300, 13.100, -69.807, 20.47, 0.00763, 0.64142, -0.76709, -0.00082, 406, 100,
 19:40:23.221,e8:da:bf:c6:3e:4f, 2015-01-01 00:58:24.065, -0.216, -0.342, -1.056, -0.549, -0.549, 165.466, , , , , , , 179.775, -0.769, -121.498, -78.300, 13.100, -69.807, 20.47, 0.00629, 0.46899, -0.88312, -0.00092, 406, 100,
 19:40:23.272,e8:da:bf:c6:3e:4f, 2015-01-01 00:58:24.425, -0.123, -0.339, -1.122, -2.319, -0.916, 171.57, , , , , , , 179.775, -0.775, -123.195, -78.300, 13.100, -69.807, 20.47, 0.00629, 0.46899, -0.88312, -0.00092, 406, 100,
 19:40:23.272,e8:da:bf:c6:3e:4f, 2015-01-01 00:58:24.425, -0.167, -0.354, -0.956, -1.648, -0.916, 170.044, , , , , , , 179.769, -0.769, -124.904, -78.300, 13.100, -69.807, 20.47, 0.00629, 0.46899, -0.88312, -0.00092, 406, 100,
 19:40:23.272,e8:da:bf:c6:3e:4f, 2015-01-01 00:58:24.425, -0.147, -0.386, -0.817, 1.038, -0.916, 175.11, , , , , , , 179.786, -0.775, -126.634, -78.300, 13.100, -69.807, 20.47, 0.00629, 0.46899, -0.88312, -0.00092, 406, 100,
 19:40:23.288,e8:da:bf:c6:3e:4f, 2015-01-01 00:58:24.425, -0.158, -0.392, -0.931, 1.099, -0.854, 177.063, , , , , , , 179.819, -0.769, -128.403, -78.300, 13.100, -69.807, 20.47, 0.00629, 0.46899, -0.88312, -0.00092, 406, 100,
 19:40:23.288,e8:da:bf:c6:3e:4f, 2015-01-01 00:58:24.425, -0.123, -0.392, -1.123, -1.526, -0.488, 179.871, , , , , , , 179.835, -0.769, -130.182, -78.300, 13.100, -69.807, 20.47, 0.00629, 0.46899, -0.88312, -0.00092, 406, 100,
 19:40:23.288,e8:da:bf:c6:3e:4f, 2015-01-01 00:58:24.425, -0.011, -0.403, -1.1, -2.563, 0.366, 183.838, , , , , , , 179.83, -0.775, -132.012, -78.300, 13.100, -69.807, 20.47, 0.00629, 0.46899, -0.88312, -0.00092, 406, 100,
 19:40:23.288,e8:da:bf:c6:3e:4f, 2015-01-01 00:58:24.425, 0.052, -0.414, -0.935, -1.221, -0.549, 182.373, , , , , , , 179.83, -0.786, -133.846, -78.300, 13.100, -69.807, 20.47, 0.00629, 0.46899, -0.88312, -0.00092, 406, 100,
 19:40:23.288,e8:da:bf:c6:3e:4f, 2015-01-01 00:58:24.425, 0.029, -0.413, -0.852, 0.366, -0.977, 180.054, , , , , , , 179.846, -0.78, -135.659, -78.300, 13.100, -69.807, 20.47, 0.00629, 0.46899, -0.88312, -0.00092, 406, 100,
 19:40:23.288,e8:da:bf:c6:3e:4f, 2015-01-01 00:58:24.425, 0.006, -0.405, -0.932, 0.61, -1.343, 180.725, , , , , , , 179.874, -0.78, -137.466, -78.300, 13.100, -69.807, 20.47, 0.00629, 0.46899, -0.88312, -0.00092, 406, 100,
 19:40:23.288,e8:da:bf:c6:3e:4f, 2015-01-01 00:58:24.425, 0.011, -0.401, -1.073, -1.099, -0.488, 181.396, , , , , , , 179.89, -0.775, -139.279, -78.300, 13.100, -69.807, 20.47, 0.00629, 0.46899, -0.88312, -0.00092, 406, 100,
 19:40:23.288,e8:da:bf:c6:3e:4f, 2015-01-01 00:58:24.425, 0.019, -0.41, -1.061, -1.892, -1.099, 181.946, , , , , , , 179.89, -0.775, -141.097, -78.300, 13.100, -69.807, 20.47, 0.00629, 0.46899, -0.88312, -0.00092, 406, 100,
 19:40:23.289,e8:da:bf:c6:3e:4f, 2015-01-01 00:58:24.425, 0.01, -0.422, -0.946, -0.671, -1.221, 181.152, , , , , , , 179.901, -0.764, -142.916, -78.300, 13.100, -69.807, 20.47, 0.00629, 0.46899, -0.88312, -0.00092, 406, 100,
 19:40:23.289,e8:da:bf:c6:3e:4f, 2015-01-01 00:58:24.425, 0.02, -0.423, -0.915, 0.122, -1.099, 181.946, , , , , , , 179.918, -0.758, -144.734, -78.300, 13.100, -69.807, 20.47, 0.00629, 0.46899, -0.88312, -0.00092, 406, 100,
 19:40:23.289,e8:da:bf:c6:3e:4f, 2015-01-01 00:58:24.425, -0.015, -0.412, -0.991, -0.244, -1.953, 180.969, , , , , , , 179.934, -0.747, -146.552, -78.300, 13.100, -69.807, 20.47, 0.00629, 0.46899, -0.88312, -0.00092, 406, 100,
 19:40:23.289,e8:da:bf:c6:3e:4f, 2015-01-01 00:58:24.425, -0.052, -0.405, -1.051, -1.343, -1.282, 181.519, , , , , , , 179.945, -0.736, -148.359, -78.300, 13.100, -69.807, 20.47, 0.00629, 0.46899, -0.88312, -0.00092, 406, 100,
 19:40:23.305,e8:da:bf:c6:3e:4f, 2015-01-01 00:58:24.425, -0.026, -0.414, -1.004, -1.465, -0.732, 184.143, , , , , , , 179.945, -0.725, -150.194, -78.300, 13.100, -69.807, 20.47, 0.00629, 0.46899, -0.88312, -0.00092, 406, 100,
 19:40:23.305,e8:da:bf:c6:3e:4f, 2015-01-01 00:58:24.425, -0.012, -0.425, -0.91, -0.122, -0.977, 183.838, , , , , , , 179.956, -0.725, -152.04, -78.300, 13.100, -69.807, 20.47, 0.00629, 0.46899, -0.88312, -0.00092, 406, 100,
 19:40:23.305,e8:da:bf:c6:3e:4f, 2015-01-01 00:58:24.425, 0.031, -0.425, -0.929, 0.488, -0.427, 184.875, , , , , , , 179.978, -0.714, -153.885, -78.300, 13.100, -69.807, 20.47, 0.00629, 0.46899, -0.88312, -0.00092, 406, 100,
 19:40:23.305,e8:da:bf:c6:3e:4f, 2015-01-01 00:58:24.425, 0.061, -0.419, -1.034, -0.671, -0.61, 184.937, , , , , , , 179.995, -0.72, -155.737, -78.300, 13.100, -69.807, 20.47, 0.00629, 0.46899, -0.88312, -0.00092, 406, 100,
 19:40:23.337,e8:da:bf:c6:3e:4f, 2015-01-01 00:58:24.425, 0.199, -0.419, -1.037, -1.587, 4.944, 188.904, , , , , , , -180, -0.731, -157.599, -78.300, 13.100, -69.807, 20.47, 0.00629, 0.46899, -0.88312, -0.00092, 406, 100,
 19:40:23.337,e8:da:bf:c6:3e:4f, 2015-01-01 00:58:24.425, 2.372, -0.444, -0.956, 1.099, 0.977, 216.797, , , , , , , -179.989, -0.78, -159.637, -78.300, 13.100, -69.807, 20.47, 0.00629, 0.46899, -0.88312, -0.00092, 406, 100,
 19:40:23.337,e8:da:bf:c6:3e:4f, 2015-01-01 00:58:24.425, 3.478, -0.295, -0.945, 5.371, -3.54, 151.245, , , , , , , -179.907, -0.72, -161.554, -78.300, 13.100, -69.807, 20.47, 0.00629, 0.46899, -0.88312, -0.00092, 406, 100,
 19:40:23.337,e8:da:bf:c6:3e:4f, 2015-01-01 00:58:24.425, 4.272, -0.148, -1.031, -1.282, 5.249, 97.351, , , , , , , -179.89, -0.758, -162.686, -78.300, 13.100, -69.807, 20.47, 0.00629, 0.46899, -0.88312, -0.00092, 406, 100,
 19:40:23.562,e8:da:bf:c6:3e:4f, 2015-01-01 00:58:24.425, 3.962, -0.006, -1.041, -0.061, -5.981, 34.302, , , , , , , -179.885, -0.742, -163.394, -78.300, 13.100, -69.807, 20.47, 0.00629, 0.46899, -0.88312, -0.00092, 406, 100,
 19:40:23.563,e8:da:bf:c6:3e:4f, 2015-01-01 00:58:24.425, 2.996, 0.026, -0.944, -1.16, -3.906, -26.733, , , , , , , -179.896, -0.692, -163.334, -78.300, 13.100, -69.807, 20.47, 0.00504, 0.1571, -0.98752, -0.00052, 406, 100,
 19:40:23.563,e8:da:bf:c6:3e:4f, 2015-01-01 00:58:24.425, 1.603, 0.004, -0.856, 1.465, -10.315, -72.021, , , , , , , -179.896, -0.61, -162.85, -78.300, 13.100, -69.807, 20.47, 0.00504, 0.1571, -0.98752, -0.00052, 406, 100,
 19:40:23.563,e8:da:bf:c6:3e:4f, 2015-01-01 00:58:24.425, 0.194, -0.021, -0.916, 0, 0.183, -99.854, , , , , , , -179.89, -0.582, -161.927, -78.300, 13.100, -69.807, 20.47, 0.00504, 0.1571, -0.98752, -0.00052, 406, 100,
 19:40:23.579,e8:da:bf:c6:3e:4f, 2015-01-01 00:58:24.780, -0.632, -0.034, -1.15, -2.319, -0.732, -92.651, , , , , , , -179.907, -0.588, -160.961, -78.300, 13.100, -69.807, 20.47, 0.00504, 0.1571, -0.98752, -0.00052, 406, 100,
 19:40:23.579,e8:da:bf:c6:3e:4f, 2015-01-01 00:58:24.780, -1.163, -0.062, -1.191, -3.967, -7.385, -77.148, , , , , , , -179.945, -0.538, -160.126, -78.300, 13.100, -69.807, 20.47, 0.00504, 0.1571, -0.98752, -0.00052, 406, 100,
 19:40:23.579,e8:da:bf:c6:3e:4f, 2015-01-01 00:58:24.780, -1.935, -0.08, -1.063, -5.188, -2.93, -63.904, , , , , , , -179.995, -0.483, -159.417, -78.300, 13.100, -69.807, 20.47, 0.00504, 0.1571, -0.98752, -0.00052, 406, 100,
 19:40:23.579,e8:da:bf:c6:3e:4f, 2015-01-01 00:58:24.780, -2.329, -0.113, -0.838, -2.136, 0.061, -28.748, , , , , , , 179.962, -0.472, -158.956, -78.300, 13.100, -69.807, 20.47, 0.00504, 0.1571, -0.98752, -0.00052, 406, 100,
 19:40:23.580,e8:da:bf:c6:3e:4f, 2015-01-01 00:58:24.780, -2.207, -0.095, -0.736, 1.831, 2.136, 8.301, , , , , , , 179.962, -0.483, -158.884, -78.300, 13.100, -69.807, 20.47, 0.00504, 0.1571, -0.98752, -0.00052, 406, 100,
 19:40:23.580,e8:da:bf:c6:3e:4f, 2015-01-01 00:58:24.780, -1.46, -0.058, -0.836, 2.625, 6.47, 41.992, , , , , , , 179.989, -0.527, -159.153, -78.300, 13.100, -69.807, 20.47, 0.00504, 0.1571, -0.98752, -0.00052, 406, 100,
 19:40:23.580,e8:da:bf:c6:3e:4f, 2015-01-01 00:58:24.780, -0.623, -0.037, -0.959, 1.648, 8.545, 64.514, , , , , , , -179.984, -0.61, -159.725, -78.300, 13.100, -69.807, 20.47, 0.00504, 0.1571, -0.98752, -0.00052, 406, 100,
 19:40:23.581,e8:da:bf:c6:3e:4f, 2015-01-01 00:58:24.780, -0.02, -0.051, -1.021, 1.831, 4.395, 71.167, , , , , , , -179.962, -0.692, -160.417, -78.300, 13.100, -69.807, 20.47, 0.00504, 0.1571, -0.98752, -0.00052, 406, 100,
 19:40:23.581,e8:da:bf:c6:3e:4f, 2015-01-01 00:58:24.780, 0.295, -0.062, -1.126, -0.061, 2.93, 72.388, , , , , , , -179.945, -0.703, -161.131, -78.300, 13.100, -69.807, 20.47, 0.00504, 0.1571, -0.98752, -0.00052, 406, 100,
 19:40:23.581,e8:da:bf:c6:3e:4f, 2015-01-01 00:58:24.780, 1.651, -0.064, -1.086, -0.244, 0.061, 82.886, , , , , , , -179.945, -0.753, -161.917, -78.300, 13.100, -69.807, 20.47, 0.00504, 0.1571, -0.98752, -0.00052, 406, 100,
 19:40:23.581,e8:da:bf:c6:3e:4f, 2015-01-01 00:58:24.780, 2.252, 0.009, -1.02, 1.831, -3.662, 39.368, , , , , , , -179.918, -0.698, -162.576, -78.300, 13.100, -69.807, 20.47, 0.00504, 0.1571, -0.98752, -0.00052, 406, 100,
 19:40:23.581,e8:da:bf:c6:3e:4f, 2015-01-01 00:58:24.780, 2.342, 0.044, -0.989, -2.625, 2.258, -0.122, , , , , , , -179.929, -0.714, -162.697, -78.300, 13.100, -69.807, 20.47, 0.00504, 0.1571, -0.98752, -0.00052, 406, 100,
 19:40:23.582,e8:da:bf:c6:3e:4f, 2015-01-01 00:58:24.780, 1.843, 0.044, -0.902, 0.916, -6.897, -31.555, , , , , , , -179.934, -0.676, -162.565, -78.300, 13.100, -69.807, 20.47, 0.00504, 0.1571, -0.98752, -0.00052, 406, 100,
 19:40:23.582,e8:da:bf:c6:3e:4f, 2015-01-01 00:58:24.780, 0.829, -0.005, -0.863, -0.122, -0.427, -63.354, , , , , , , -179.934, -0.637, -162.032, -78.300, 13.100, -69.807, 20.47, 0.00504, 0.1571, -0.98752, -0.00052, 406, 100,
 19:40:23.582,e8:da:bf:c6:3e:4f, 2015-01-01 00:58:24.780, 0.255, -0.034, -0.93, 2.197, -3.113, -67.261, , , , , , , -179.923, -0.621, -161.389, -78.300, 13.100, -69.807, 20.47, 0.00504, 0.1571, -0.98752, -0.00052, 406, 100,
 19:40:23.582,e8:da:bf:c6:3e:4f, 2015-01-01 00:58:24.780, -0.167, -0.017, -1.135, -1.404, 1.953, -77.026, , , , , , , -179.929, -0.621, -160.653, -78.300, 13.100, -69.807, 20.47, 0.00504, 0.1571, -0.98752, -0.00052, 406, 100,
 19:40:23.582,e8:da:bf:c6:3e:4f, 2015-01-01 00:58:24.780, -0.473, -0.035, -1.146, -2.869, -1.892, -72.632, , , , , , , -179.956, -0.626, -159.901, -78.300, 13.100, -69.807, 20.47, 0.00504, 0.1571, -0.98752, -0.00052, 406, 100,
 19:40:23.583,e8:da:bf:c6:3e:4f, 2015-01-01 00:58:24.780, -0.776, -0.064, -0.973, -1.648, -5.31, -61.218, , , , , , , -179.984, -0.582, -159.236, -78.300, 13.100, -69.807, 20.47, 0.00504, 0.1571, -0.98752, -0.00052, 406, 100,
 19:40:23.583,e8:da:bf:c6:3e:4f, 2015-01-01 00:58:24.780, -1.396, -0.071, -0.911, -1.221, -2.808, -52.185, , , , , , , -180, -0.544, -158.676, -78.300, 13.100, -69.807, 20.47, 0.00504, 0.1571, -0.98752, -0.00052, 406, 100,
 19:40:23.583,e8:da:bf:c6:3e:4f, 2015-01-01 00:58:24.780, -1.873, -0.064, -0.974, -0.793, -1.343, -28.564, , , , , , , 179.989, -0.522, -158.269, -78.300, 13.100, -69.807, 20.47, 0.00504, 0.1571, -0.98752, -0.00052, 406, 100,
 19:40:23.655,e8:da:bf:c6:3e:4f, 2015-01-01 00:58:24.780, -1.83, -0.054, -0.949, -0.854, 0.732, 4.456, , , , , , , 179.978, -0.522, -158.17, -78.300, 13.100, -69.807, 20.47, 0.00504, 0.1571, -0.98752, -0.00052, 406, 100,
 19:40:23.655,e8:da:bf:c6:3e:4f, 2015-01-01 00:58:24.780, -1.303, -0.049, -0.848, 1.099, 4.272, 30.823, , , , , , , 179.978, -0.549, -158.362, -78.300, 13.100, -69.807, 20.47, 0.00504, 0.1571, -0.98752, -0.00052, 406, 100,
 19:40:23.655,e8:da:bf:c6:3e:4f, 2015-01-01 00:58:24.780, -0.583, -0.055, -0.827, 2.808, 7.263, 52.551, , , , , , , -179.995, -0.61, -158.807, -78.300, 13.100, -69.807, 20.47, 0.00504, 0.1571, -0.98752, -0.00052, 406, 100,
 19:40:23.655,e8:da:bf:c6:3e:4f, 2015-01-01 00:58:24.780, -0.074, -0.039, -0.988, 2.319, 5.981, 57.617, , , , , , , -179.962, -0.681, -159.373, -78.300, 13.100, -69.807, 20.47, 0.00504, 0.1571, -0.98752, -0.00052, 406, 100,
 19:40:23.671,e8:da:bf:c6:3e:4f, 2015-01-01 00:58:24.780, 0.126, -0.019, -1.222, -0.977, -0.061, 56.519, , , , , , , -179.945, -0.703, -159.95, -78.300, 13.100, -69.807, 20.47, 0.00504, 0.1571, -0.98752, -0.00052, 406, 100,
 19:40:23.671,e8:da:bf:c6:3e:4f, 2015-01-01 00:58:24.780, 0.148, -0.015, -1.173, -3.296, 1.099, 54.993, , , , , , , -179.967, -0.709, -160.505, -78.300, 13.100, -69.807, 20.47, 0.00504, 0.1571, -0.98752, -0.00052, 406, 100,
 19:40:23.671,e8:da:bf:c6:3e:4f, 2015-01-01 00:58:24.780, 0.432, -0.045, -0.837, -0.122, 2.747, 58.96, , , , , , , -179.984, -0.731, -161.071, -78.300, 13.100, -69.807, 20.47, 0.00504, 0.1571, -0.98752, -0.00052, 406, 100,
 19:40:23.671,e8:da:bf:c6:3e:4f, 2015-01-01 00:58:24.780, 1.005, -0.044, -0.697, 4.883, -3.174, 55.42, , , , , , , -179.951, -0.736, -161.669, -78.300, 13.100, -69.807, 20.47, 0.00504, 0.1571, -0.98752, -0.00052, 406, 100,
 19:40:23.687,e8:da:bf:c6:3e:4f, 2015-01-01 00:58:24.780, 1.086, 0.018, -0.976, 2.563, 0.732, 26.123, , , , , , , -179.901, -0.714, -162.065, -78.300, 13.100, -69.807, 20.47, 0.00504, 0.1571, -0.98752, -0.00052, 406, 100,
 19:40:23.687,e8:da:bf:c6:3e:4f, 2015-01-01 00:58:24.780, 1.352, 0.042, -1.262, -1.77, -0.488, 18.127, , , , , , , -179.901, -0.725, -162.274, -78.300, 13.100, -69.807, 20.47, 0.00504, 0.1571, -0.98752, -0.00052, 406, 100,
 19:40:23.687,e8:da:bf:c6:3e:4f, 2015-01-01 00:58:24.780, 1.204, 0.033, -1.142, -3.235, -2.502, -9.583, , , , , , , -179.929, -0.698, -162.318, -78.300, 13.100, -69.807, 20.47, 0.00504, 0.1571, -0.98752, -0.00052, 406, 100,
 19:40:23.687,e8:da:bf:c6:3e:4f, 2015-01-01 00:58:24.780, 0.971, -0.014, -0.828, 0.183, -2.014, -24.17, , , , , , , -179.945, -0.676, -162.125, -78.300, 13.100, -69.807, 20.47, 0.00504, 0.1571, -0.98752, -0.00052, 406, 100,
 19:40:23.930,e8:da:bf:c6:3e:4f, 2015-01-01 00:58:24.780, 0.76, -0.013, -0.769, 2.808, 0.061, -36.011, , , , , , , -179.929, -0.67, -161.823, -78.300, 13.100, -69.807, 20.47, 0.00504, 0.1571, -0.98752, -0.00052, 406, 100,
 19:40:24.154,e8:da:bf:c6:3e:4f, 2015-01-01 00:58:24.780, 0.755, 0.021, -1.013, 0.671, 0.549, -44.067, , , , , , , -179.912, -0.676, -161.417, -78.300, 13.100, -69.807, 20.47, 0.00519, 0.28442, -0.95865, -0.00061, 406, 100,
 19:40:24.174,e8:da:bf:c6:3e:4f, 2015-01-01 00:58:25.140, 0.915, 0.035, -1.131, -1.526, 0.916, -53.65, , , , , , , -179.923, -0.687, -160.928, -78.300, 13.100, -69.807, 20.47, 0.00519, 0.28442, -0.95865, -0.00061, 406, 100,
 19:40:24.174,e8:da:bf:c6:3e:4f, 2015-01-01 00:58:25.140, 1.206, -0.006, -1.022, -1.099, 0.244, -65.674, , , , , , , -179.94, -0.692, -160.329, -78.300, 13.100, -69.807, 20.47, 0.00519, 0.28442, -0.95865, -0.00061, 406, 100,
 19:40:24.202,e8:da:bf:c6:3e:4f, 2015-01-01 00:58:25.140, 1.388, -0.073, -0.923, 0.122, -0.122, -84.167, , , , , , , -179.951, -0.692, -159.582, -78.300, 13.100, -69.807, 20.47, 0.00519, 0.28442, -0.95865, -0.00061, 406, 100,
 19:40:24.202,e8:da:bf:c6:3e:4f, 2015-01-01 00:58:25.140, 1.203, -0.125, -0.965, 0.427, -1.648, -108.398, , , , , , , -179.956, -0.681, -158.615, -78.300, 13.100, -69.807, 20.47, 0.00519, 0.28442, -0.95865, -0.00061, 406, 100,
 19:40:24.202,e8:da:bf:c6:3e:4f, 2015-01-01 00:58:25.140, 0.899, -0.142, -1.018, -0.488, 0.366, -124.146, , , , , , , -179.967, -0.681, -157.434, -78.300, 13.100, -69.807, 20.47, 0.00519, 0.28442, -0.95865, -0.00061, 406, 100,
 19:40:24.202,e8:da:bf:c6:3e:4f, 2015-01-01 00:58:25.140, 0.702, -0.156, -0.93, 0.183, 1.16, -133.606, , , , , , , -179.978, -0.687, -156.143, -78.300, 13.100, -69.807, 20.47, 0.00519, 0.28442, -0.95865, -0.00061, 406, 100,
 19:40:24.203,e8:da:bf:c6:3e:4f, 2015-01-01 00:58:25.140, 0.54, -0.193, -0.844, 2.38, 1.831, -144.348, , , , , , , -179.978, -0.703, -154.748, -78.300, 13.100, -69.807, 20.47, 0.00519, 0.28442, -0.95865, -0.00061, 406, 100,
 19:40:24.203,e8:da:bf:c6:3e:4f, 2015-01-01 00:58:25.140, 0.38, -0.245, -0.979, 1.831, 0.122, -152.1, , , , , , , -179.967, -0.709, -153.265, -78.300, 13.100, -69.807, 20.47, 0.00519, 0.28442, -0.95865, -0.00061, 406, 100,
 19:40:24.203,e8:da:bf:c6:3e:4f, 2015-01-01 00:58:25.140, 0.186, -0.29, -1.143, -0.671, 0.671, -158.264, , , , , , , -179.978, -0.72, -151.705, -78.300, 13.100, -69.807, 20.47, 0.00519, 0.28442, -0.95865, -0.00061, 406, 100,
 19:40:24.203,e8:da:bf:c6:3e:4f, 2015-01-01 00:58:25.140, 0.205, -0.321, -1.101, -1.404, 1.709, -155.64, , , , , , , 179.995, -0.725, -150.134, -78.300, 13.100, -69.807, 20.47, 0.00519, 0.28442, -0.95865, -0.00061, 406, 100,
 19:40:24.203,e8:da:bf:c6:3e:4f, 2015-01-01 00:58:25.140, 0.272, -0.317, -0.937, 0.061, 0.732, -157.471, , , , , , , 179.973, -0.742, -148.579, -78.300, 13.100, -69.807, 20.47, 0.00519, 0.28442, -0.95865, -0.00061, 406, 100,
 19:40:24.203,e8:da:bf:c6:3e:4f, 2015-01-01 00:58:25.140, 0.131, -0.301, -0.877, 1.16, 0.244, -168.213, , , , , , , 179.967, -0.742, -146.948, -78.300, 13.100, -69.807, 20.47, 0.00519, 0.28442, -0.95865, -0.00061, 406, 100,
 19:40:24.203,e8:da:bf:c6:3e:4f, 2015-01-01 00:58:25.140, 0.006, -0.306, -0.974, 0.366, 1.099, -167.908, , , , , , , 179.962, -0.753, -145.261, -78.300, 13.100, -69.807, 20.47, 0.00519, 0.28442, -0.95865, -0.00061, 406, 100,
 19:40:24.204,e8:da:bf:c6:3e:4f, 2015-01-01 00:58:25.140, 0.065, -0.33, -1.019, -0.122, 1.648, -162.476, , , , , , , 179.945, -0.758, -143.613, -78.300, 13.100, -69.807, 20.47, 0.00519, 0.28442, -0.95865, -0.00061, 406, 100,
 19:40:24.204,e8:da:bf:c6:3e:4f, 2015-01-01 00:58:25.140, 0.178, -0.35, -0.963, 0.732, 1.709, -162.659, , , , , , , 179.929, -0.78, -141.993, -78.300, 13.100, -69.807, 20.47, 0.00519, 0.28442, -0.95865, -0.00061, 406, 100,
 19:40:24.204,e8:da:bf:c6:3e:4f, 2015-01-01 00:58:25.140, 0.246, -0.356, -0.946, 1.465, 1.099, -166.199, , , , , , , 179.929, -0.786, -140.35, -78.300, 13.100, -69.807, 20.47, 0.00519, 0.28442, -0.95865, -0.00061, 406, 100,
 19:40:24.204,e8:da:bf:c6:3e:4f, 2015-01-01 00:58:25.140, 0.222, -0.352, -1.018, 0.854, 0.732, -171.021, , , , , , , 179.923, -0.797, -138.664, -78.300, 13.100, -69.807, 20.47, 0.00519, 0.28442, -0.95865, -0.00061, 406, 100,
 19:40:24.204,e8:da:bf:c6:3e:4f, 2015-01-01 00:58:25.140, 0.2, -0.352, -1.064, -0.427, 1.77, -173.95, , , , , , , 179.907, -0.802, -136.934, -78.300, 13.100, -69.807, 20.47, 0.00519, 0.28442, -0.95865, -0.00061, 406, 100,
 19:40:24.204,e8:da:bf:c6:3e:4f, 2015-01-01 00:58:25.140, 0.249, -0.362, -1.007, -0.366, 1.038, -174.622, , , , , , , 179.879, -0.813, -135.198, -78.300, 13.100, -69.807, 20.47, 0.00519, 0.28442, -0.95865, -0.00061, 406, 100,
 19:40:24.205,e8:da:bf:c6:3e:4f, 2015-01-01 00:58:25.140, 0.267, -0.383, -0.895, 0.793, 0.427, -179.138, , , , , , , 179.863, -0.813, -133.429, -78.300, 13.100, -69.807, 20.47, 0.00519, 0.28442, -0.95865, -0.00061, 406, 100,
 19:40:24.205,e8:da:bf:c6:3e:4f, 2015-01-01 00:58:25.140, 0.25, -0.404, -0.881, 2.197, 0.977, -182.251, , , , , , , 179.863, -0.818, -131.622, -78.300, 13.100, -69.807, 20.47, 0.00519, 0.28442, -0.95865, -0.00061, 406, 100,
 19:40:24.205,e8:da:bf:c6:3e:4f, 2015-01-01 00:58:25.140, 0.147, -0.415, -1.009, 1.282, 0.488, -186.89, , , , , , , 179.863, -0.818, -129.776, -78.300, 13.100, -69.807, 20.47, 0.00519, 0.28442, -0.95865, -0.00061, 406, 100,
 19:40:24.205,e8:da:bf:c6:3e:4f, 2015-01-01 00:58:25.140, 0.048, -0.426, -1.104, -0.427, 0.183, -188.599, , , , , , , 179.846, -0.818, -127.897, -78.300, 13.100, -69.807, 20.47, 0.00519, 0.28442, -0.95865, -0.00061, 406, 100,
 19:40:24.205,e8:da:bf:c6:3e:4f, 2015-01-01 00:58:25.140, -0.029, -0.438, -1.045, -0.61, 0.305, -189.27, , , , , , , 179.813, -0.807, -126.008, -78.300, 13.100, -69.807, 20.47, 0.00519, 0.28442, -0.95865, -0.00061, 406, 100,
 19:40:24.205,e8:da:bf:c6:3e:4f, 2015-01-01 00:58:25.140, -0.079, -0.443, -0.926, 0.427, 1.221, -188.538, , , , , , , 179.797, -0.813, -124.118, -78.300, 13.100, -69.807, 20.47, 0.00519, 0.28442, -0.95865, -0.00061, 406, 100,
 19:40:24.206,e8:da:bf:c6:3e:4f, 2015-01-01 00:58:25.140, -0.061, -0.432, -0.894, 1.526, 0.793, -185.181, , , , , , , 179.786, -0.813, -122.25, -78.300, 13.100, -69.807, 20.47, 0.00519, 0.28442, -0.95865, -0.00061, 406, 100,
 19:40:24.206,e8:da:bf:c6:3e:4f, 2015-01-01 00:58:25.140, -0.052, -0.411, -0.968, 1.099, 0.977, -184.387, , , , , , , 179.78, -0.818, -120.41, -78.300, 13.100, -69.807, 20.47, 0.00519, 0.28442, -0.95865, -0.00061, 406, 100,
 19:40:24.206,e8:da:bf:c6:3e:4f, 2015-01-01 00:58:25.140, -0.032, -0.406, -1.032, 0.183, 1.16, -182.739, , , , , , , 179.764, -0.818, -118.575, -78.300, 13.100, -69.807, 20.47, 0.00519, 0.28442, -0.95865, -0.00061, 406, 100,
 19:40:24.206,e8:da:bf:c6:3e:4f, 2015-01-01 00:58:25.140, -0.027, -0.418, -0.998, 0.366, 1.16, -182.373, , , , , , , 179.747, -0.824, -116.752, -78.300, 13.100, -69.807, 20.47, 0.00519, 0.28442, -0.95865, -0.00061, 406, 100,
 19:40:24.207,e8:da:bf:c6:3e:4f, 2015-01-01 00:58:25.140, 0.003, -0.428, -0.961, 1.038, 1.099, -181.274, , , , , , , 179.736, -0.824, -114.933, -78.300, 13.100, -69.807, 20.47, 0.00519, 0.28442, -0.95865, -0.00061, 406, 100,
 19:40:24.207,e8:da:bf:c6:3e:4f, 2015-01-01 00:58:25.140, 0.007, -0.419, -0.993, 0.793, 0.916, -181.763, , , , , , , 179.725, -0.829, -113.121, -78.300, 13.100, -69.807, 20.47, 0.00519, 0.28442, -0.95865, -0.00061, 406, 100,
 19:40:24.207,e8:da:bf:c6:3e:4f, 2015-01-01 00:58:25.140, 0.071, -0.4, -1.031, 0.122, 1.709, -180.237, , , , , , , 179.709, -0.829, -111.313, -78.300, 13.100, -69.807, 20.47, 0.00519, 0.28442, -0.95865, -0.00061, 406, 100,
 19:40:24.207,e8:da:bf:c6:3e:4f, 2015-01-01 00:58:25.140, 0.125, -0.385, -1.016, -0.366, 1.404, -181.03, , , , , , , 179.687, -0.84, -109.512, -78.300, 13.100, -69.807, 20.47, 0.00519, 0.28442, -0.95865, -0.00061, 406, 100,
 19:40:24.207,e8:da:bf:c6:3e:4f, 2015-01-01 00:58:25.140, 0.074, -0.399, -0.927, 0.366, 0.671, -184.509, , , , , , , 179.665, -0.829, -107.682, -78.300, 13.100, -69.807, 20.47, 0.00519, 0.28442, -0.95865, -0.00061, 406, 100,
 19:40:24.208,e8:da:bf:c6:3e:4f, 2015-01-01 00:58:25.140, -0.021, -0.427, -0.872, 2.014, 0, -185.486, , , , , , , 179.659, -0.829, -105.831, -78.300, 13.100, -69.807, 20.47, 0.00519, 0.28442, -0.95865, -0.00061, 406, 100,
 19:40:24.208,e8:da:bf:c6:3e:4f, 2015-01-01 00:58:25.140, -0.09, -0.433, -0.977, 1.77, 0.61, -184.57, , , , , , , 179.665, -0.813, -103.98, -78.300, 13.100, -69.807, 20.47, 0.00519, 0.28442, -0.95865, -0.00061, 406, 100,
 19:40:24.208,e8:da:bf:c6:3e:4f, 2015-01-01 00:58:25.140, -0.09, -0.403, -1.097, 0.061, -2.319, -183.899, , , , , , , 179.654, -0.807, -102.145, -78.300, 13.100, -69.807, 20.47, 0.00519, 0.28442, -0.95865, -0.00061, 406, 100,
 19:40:24.208,e8:da:bf:c6:3e:4f, 2015-01-01 00:58:25.140, -1.48, -0.349, -1.086, -1.099, -7.263, -202.148, , , , , , , 179.626, -0.731, -100.228, -78.300, 13.100, -69.807, 20.47, 0.00519, 0.28442, -0.95865, -0.00061, 406, 100,
 19:40:24.208,e8:da:bf:c6:3e:4f, 2015-01-01 00:58:25.140, -2.925, -0.378, -1.082, 2.625, -5.737, -174.866, , , , , , , 179.626, -0.659, -98.262, -78.300, 13.100, -69.807, 20.47, 0.00519, 0.28442, -0.95865, -0.00061, 406, 100,
 19:40:24.208,e8:da:bf:c6:3e:4f, 2015-01-01 00:58:25.140, -3.838, -0.346, -0.932, -2.441, -6.958, -113.464, , , , , , , 179.61, -0.577, -96.91, -78.300, 13.100, -69.807, 20.47, 0.00519, 0.28442, -0.95865, -0.00061, 406, 100,
 19:40:24.209,e8:da:bf:c6:3e:4f, 2015-01-01 00:58:25.140, -4.15, -0.295, -0.786, 5.92, 1.465, -67.139, , , , , , , 179.626, -0.544, -95.971, -78.300, 13.100, -69.807, 20.47, 0.00519, 0.28442, -0.95865, -0.00061, 406, 100,
 19:40:24.209,e8:da:bf:c6:3e:4f, 2015-01-01 00:58:25.140, -3.175, -0.212, -0.845, -2.441, 6.409, 11.108, , , , , , , 179.648, -0.593, -95.779, -78.300, 13.100, -69.807, 20.47, 0.00519, 0.28442, -0.95865, -0.00061, 406, 100,
 19:40:24.225,e8:da:bf:c6:3e:4f, 2015-01-01 00:58:25.140, -1.747, -0.127, -1.031, -1.16, 11.169, 43.701, , , , , , , 179.626, -0.681, -96.059, -78.300, 13.100, -69.807, 20.47, 0.00519, 0.28442, -0.95865, -0.00061, 406, 100,
 19:40:24.225,e8:da:bf:c6:3e:4f, 2015-01-01 00:58:25.140, -0.274, -0.08, -1.002, -3.479, 4.822, 82.397, , , , , , , 179.599, -0.78, -96.762, -78.300, 13.100, -69.807, 20.47, 0.00519, 0.28442, -0.95865, -0.00061, 406, 100,
 19:40:24.225,e8:da:bf:c6:3e:4f, 2015-01-01 00:58:25.140, 0.444, -0.025, -0.873, 2.014, 1.77, 74.28, , , , , , , 179.604, -0.824, -97.559, -78.300, 13.100, -69.807, 20.47, 0.00519, 0.28442, -0.95865, -0.00061, 406, 100,
 19:40:24.225,e8:da:bf:c6:3e:4f, 2015-01-01 00:58:25.140, 0.896, 0.003, -1.041, 0.977, 3.235, 64.697, , , , , , , 179.632, -0.857, -98.24, -78.300, 13.100, -69.807, 20.47, 0.00519, 0.28442, -0.95865, -0.00061, 406, 100,
 19:40:24.253,e8:da:bf:c6:3e:4f, 2015-01-01 00:58:25.140, 1.556, 0.035, -1.288, -3.174, -2.014, 56.396, , , , , , , 179.626, -0.868, -98.86, -78.300, 13.100, -69.807, 20.47, 0.00519, 0.28442, -0.95865, -0.00061, 406, 100,
 19:40:24.253,e8:da:bf:c6:3e:4f, 2015-01-01 00:58:25.140, 1.635, 0.048, -1.106, -4.7, -1.526, 21.79, , , , , , , 179.588, -0.846, -99.245, -78.300, 13.100, -69.807, 20.47, 0.00519, 0.28442, -0.95865, -0.00061, 406, 100,
 19:40:24.253,e8:da:bf:c6:3e:4f, 2015-01-01 00:58:25.140, 1.498, 0.023, -0.688, 0.671, -2.075, 0.732, , , , , , , 179.566, -0.835, -99.338, -78.300, 13.100, -69.807, 20.47, 0.00519, 0.28442, -0.95865, -0.00061, 406, 100,
 19:40:24.253,e8:da:bf:c6:3e:4f, 2015-01-01 00:58:25.140, 0.997, 0.022, -0.629, 4.944, -2.808, -23.499, , , , , , , 179.604, -0.807, -99.218, -78.300, 13.100, -69.807, 20.47, 0.00519, 0.28442, -0.95865, -0.00061, 406, 100,
 19:40:24.269,e8:da:bf:c6:3e:4f, 2015-01-01 00:58:25.140, 0.296, 0.032, -0.952, 3.235, -0.244, -39.429, , , , , , , 179.643, -0.791, -98.882, -78.300, 13.100, -69.807, 20.47, 0.00711, 0.65692, -0.75388, -0.00061, 406, 100,
 19:40:24.269,e8:da:bf:c6:3e:4f, 2015-01-01 00:58:25.140, -0.097, 0.021, -1.223, -0.549, -0.732, -42.969, , , , , , , 179.654, -0.775, -98.465, -78.300, 13.100, -69.807, 20.47, 0.00711, 0.65692, -0.75388, -0.00061, 406, 100,
 19:40:24.269,e8:da:bf:c6:3e:4f, 2015-01-01 00:58:25.140, -0.308, -0.003, -1.179, -2.441, -0.793, -40.039, , , , , , , 179.626, -0.775, -98.047, -78.300, 13.100, -69.807, 20.47, 0.00711, 0.65692, -0.75388, -0.00061, 406, 100,
 19:40:24.269,e8:da:bf:c6:3e:4f, 2015-01-01 00:58:25.140, -0.621, -0.021, -0.928, -0.549, -3.662, -34.729, , , , , , , 179.61, -0.742, -97.679, -78.300, 13.100, -69.807, 20.47, 0.00711, 0.65692, -0.75388, -0.00061, 406, 100,
 19:40:24.372,e8:da:bf:c6:3e:4f, 2015-01-01 00:58:25.525, -1.188, -0.02, -0.847, 1.16, -1.77, -26.428, , , , , , , 179.61, -0.709, -97.372, -78.300, 13.100, -69.807, 20.47, 0.00711, 0.65692, -0.75388, -0.00061, 406, 100,
 19:40:24.388,e8:da:bf:c6:3e:4f, 2015-01-01 00:58:25.525, -1.419, -0.016, -1.043, 0, -0.61, -2.625, , , , , , , 179.621, -0.698, -97.229, -78.300, 13.100, -69.807, 20.47, 0.00711, 0.65692, -0.75388, -0.00061, 406, 100,
 19:40:24.388,e8:da:bf:c6:3e:4f, 2015-01-01 00:58:25.525, -1.24, -0.021, -1.138, -2.93, 2.075, 20.813, , , , , , , 179.604, -0.709, -97.339, -78.300, 13.100, -69.807, 20.47, 0.00711, 0.65692, -0.75388, -0.00061, 406, 100,
 19:40:24.388,e8:da:bf:c6:3e:4f, 2015-01-01 00:58:25.525, -0.727, -0.053, -0.936, -1.526, 4.333, 39.551, , , , , , , 179.583, -0.747, -97.652, -78.300, 13.100, -69.807, 20.47, 0.00711, 0.65692, -0.75388, -0.00061, 406, 100,
 19:40:24.418,e8:da:bf:c6:3e:4f, 2015-01-01 00:58:25.525, -0.162, -0.066, -0.676, 2.869, 3.235, 49.072, , , , , , , 179.594, -0.786, -98.119, -78.300, 13.100, -69.807, 20.47, 0.00711, 0.65692, -0.75388, -0.00061, 406, 100,
 19:40:24.418,e8:da:bf:c6:3e:4f, 2015-01-01 00:58:25.525, 0.096, -0.017, -0.869, 4.15, 0.183, 49.072, , , , , , , 179.643, -0.813, -98.613, -78.300, 13.100, -69.807, 20.47, 0.00711, 0.65692, -0.75388, -0.00061, 406, 100,
