Time,Device name,Chip Time(),Acceleration X(g),Acceleration Y(g),Acceleration Z(g),Angular velocity X(°/s),Angular velocity Y(°/s),Angular velocity Z(°/s),ShiftX(mm),ShiftY(mm),ShiftZ(mm),SpeedX(mm/s),SpeedY(mm/s),SpeedZ(mm/s),Angle X(°),Angle Y(°),Angle Z(°),Magnetic field X(ʯt),Magnetic field Y(ʯt),Magnetic field Z(ʯt),Temperature(℃),Quaternions 0(),Quaternions 1(),Quaternions 2(),Quaternions 3(),Raw power(),Power Percent(%)()
 19:48:10.049,e8:da:bf:c6:3e:4f, 2015-01-01 01:06:07.920, 0.01, 0.007, -0.979, 0, 0, -0.122, , , , , , , 179.764, -0.775, -128.578, -78.300, 13.100, -69.807, 20.44, 0.0061, 0.43683, -0.89948, -0.00137, 405, 100,
 19:48:10.049,e8:da:bf:c6:3e:4f, 2015-01-01 01:06:07.920, 0.01, 0.007, -0.98, 0, 0, -0.183, , , , , , , 179.764, -0.775, -128.578, -78.300, 13.100, -69.807, 20.44, 0.0061, 0.43683, -0.89948, -0.00137, 405, 100,
 19:48:10.055,e8:da:bf:c6:3e:4f, 2015-01-01 01:06:07.920, 0.01, 0.007, -0.982, 0, 0, -0.122, , , , , , , 179.764, -0.775, -128.578, -78.300, 13.100, -69.807, 20.44, 0.0061, 0.43683, -0.89948, -0.00137, 405, 100,
 19:48:10.055,e8:da:bf:c6:3e:4f, 2015-01-01 01:06:07.920, 0.009, 0.007, -0.981, 0, 0, -0.122, , , , , , , 179.764, -0.775, -128.578, -78.300, 13.100, -69.807, 20.44, 0.0061, 0.43683, -0.89948, -0.00137, 405, 100,
 19:48:10.056,e8:da:bf:c6:3e:4f, 2015-01-01 01:06:07.920, 0.01, 0.007, -0.981, 0, 0, -0.122, , , , , , , 179.764, -0.775, -128.578, -78.300, 13.100, -69.807, 20.44, 0.0061, 0.43683, -0.89948, -0.00137, 405, 100,
 19:48:10.056,e8:da:bf:c6:3e:4f, 2015-01-01 01:06:07.920, 0.01, 0.007, -0.98, 0, 0, -0.122, , , , , , , 179.764, -0.775, -128.578, -78.300, 13.100, -69.807, 20.44, 0.0061, 0.43683, -0.89948, -0.00137, 405, 100,
 19:48:10.056,e8:da:bf:c6:3e:4f, 2015-01-01 01:06:07.920, 0.013, 0.007, -0.98, 0, 0, -0.122, , , , , , , 179.764, -0.775, -128.578, -78.300, 13.100, -69.807, 20.44, 0.0061, 0.43683, -0.89948, -0.00137, 405, 100,
 19:48:10.056,e8:da:bf:c6:3e:4f, 2015-01-01 01:06:07.920, 0.021, 0.007, -0.981, 0, 0.122, -0.122, , , , , , , 179.764, -0.775, -128.578, -78.300, 13.100, -69.807, 20.44, 0.0061, 0.43683, -0.89948, -0.00137, 405, 100,
 19:48:10.056,e8:da:bf:c6:3e:4f, 2015-01-01 01:06:07.920, 0.048, 0.007, -0.98, 0, 0.244, 0.244, , , , , , , 179.764, -0.775, -128.578, -78.300, 13.100, -69.807, 20.44, 0.0061, 0.43683, -0.89948, -0.00137, 405, 100,
 19:48:10.056,e8:da:bf:c6:3e:4f, 2015-01-01 01:06:07.920, 0.057, 0.007, -0.978, 0, 0.671, 0.122, , , , , , , 179.764, -0.775, -128.578, -78.300, 13.100, -69.807, 20.44, 0.0061, 0.43683, -0.89948, -0.00137, 405, 100,
 19:48:10.057,e8:da:bf:c6:3e:4f, 2015-01-01 01:06:07.920, 0.149, 0.006, -0.979, 0.061, 0.305, 2.38, , , , , , , 179.764, -0.775, -128.589, -78.300, 13.100, -69.807, 20.44, 0.0061, 0.43683, -0.89948, -0.00137, 405, 100,
 19:48:10.057,e8:da:bf:c6:3e:4f, 2015-01-01 01:06:07.920, 0.233, 0.011, -0.987, 0, -0.183, 0.427, , , , , , , 179.764, -0.775, -128.611, -78.300, 13.100, -69.807, 20.44, 0.0061, 0.43683, -0.89948, -0.00137, 405, 100,
 19:48:10.057,e8:da:bf:c6:3e:4f, 2015-01-01 01:06:07.920, 0.093, 0.018, -0.99, -0.183, -1.099, -8.972, , , , , , , 179.764, -0.769, -128.568, -78.300, 13.100, -69.807, 20.44, 0.0061, 0.43683, -0.89948, -0.00137, 405, 100,
 19:48:10.057,e8:da:bf:c6:3e:4f, 2015-01-01 01:06:07.920, -0.038, 0.01, -0.981, -0.061, -0.977, -9.888, , , , , , , 179.758, -0.758, -128.463, -78.300, 13.100, -69.807, 20.44, 0.0061, 0.43683, -0.89948, -0.00137, 405, 100,
 19:48:10.057,e8:da:bf:c6:3e:4f, 2015-01-01 01:06:07.920, -0.072, 0.003, -0.974, 0, -0.061, -7.324, , , , , , , 179.758, -0.753, -128.381, -78.300, 13.100, -69.807, 20.44, 0.0061, 0.43683, -0.89948, -0.00137, 405, 100,
 19:48:10.058,e8:da:bf:c6:3e:4f, 2015-01-01 01:06:07.920, -0.053, 0.003, -0.972, 0.122, 0, -5.615, , , , , , , 179.758, -0.753, -128.32, -78.300, 13.100, -69.807, 20.44, 0.0061, 0.43683, -0.89948, -0.00137, 405, 100,
 19:48:10.058,e8:da:bf:c6:3e:4f, 2015-01-01 01:06:07.920, -0.048, 0.005, -0.98, 0.061, 0, -5.31, , , , , , , 179.758, -0.753, -128.271, -78.300, 13.100, -69.807, 20.44, 0.0061, 0.43683, -0.89948, -0.00137, 405, 100,
 19:48:10.059,e8:da:bf:c6:3e:4f, 2015-01-01 01:06:07.920, -0.04, 0.006, -0.987, 0, 0, -4.211, , , , , , , 179.758, -0.753, -128.221, -78.300, 13.100, -69.807, 20.44, 0.0061, 0.43683, -0.89948, -0.00137, 405, 100,
 19:48:10.059,e8:da:bf:c6:3e:4f, 2015-01-01 01:06:07.920, -0.045, 0.006, -0.985, 0, -0.122, -3.662, , , , , , , 179.758, -0.753, -128.188, -78.300, 13.100, -69.807, 20.44, 0.0061, 0.43683, -0.89948, -0.00137, 405, 100,
 19:48:10.059,e8:da:bf:c6:3e:4f, 2015-01-01 01:06:07.920, -0.042, 0.005, -0.978, 0, 0.061, -2.808, , , , , , , 179.758, -0.753, -128.156, -78.300, 13.100, -69.807, 20.44, 0.0061, 0.43683, -0.89948, -0.00137, 405, 100,
 19:48:10.059,e8:da:bf:c6:3e:4f, 2015-01-01 01:06:07.920, -0.032, 0.006, -0.977, 0.061, 0, -1.953, , , , , , , 179.758, -0.753, -128.134, -78.300, 13.100, -69.807, 20.44, 0.0061, 0.43683, -0.89948, -0.00137, 405, 100,
 19:48:10.059,e8:da:bf:c6:3e:4f, 2015-01-01 01:06:07.920, 0.018, 0.005, -0.981, 0, 1.587, -0.977, , , , , , , 179.758, -0.753, -128.117, -78.300, 13.100, -69.807, 20.44, 0.0061, 0.43683, -0.89948, -0.00137, 405, 100,
 19:48:10.060,e8:da:bf:c6:3e:4f, 2015-01-01 01:06:07.920, 0.252, 0.003, -0.985, 0.061, 2.502, 3.174, , , , , , , 179.758, -0.78, -128.134, -78.300, 13.100, -69.807, 20.44, 0.0061, 0.43683, -0.89948, -0.00137, 405, 100,
 19:48:10.060,e8:da:bf:c6:3e:4f, 2015-01-01 01:06:07.920, 0.508, 0.012, -0.989, 0.061, 0.854, 0, , , , , , , 179.758, -0.797, -128.161, -78.300, 13.100, -69.807, 20.44, 0.0061, 0.43683, -0.89948, -0.00137, 405, 100,
 19:48:10.060,e8:da:bf:c6:3e:4f, 2015-01-01 01:06:07.920, 0.434, 0.023, -0.984, -0.122, -0.549, -14.221, , , , , , , 179.758, -0.797, -128.084, -78.300, 13.100, -69.807, 20.44, 0.0061, 0.43683, -0.89948, -0.00137, 405, 100,
 19:48:10.061,e8:da:bf:c6:3e:4f, 2015-01-01 01:06:07.920, 0.209, 0.017, -0.969, 0, -2.197, -21.362, , , , , , , 179.758, -0.78, -127.897, -78.300, 13.100, -69.807, 20.44, 0.0061, 0.43683, -0.89948, -0.00137, 405, 100,
 19:48:10.061,e8:da:bf:c6:3e:4f, 2015-01-01 01:06:07.920, 0.012, 0.009, -0.963, 0.244, -1.465, -24.048, , , , , , , 179.753, -0.758, -127.672, -78.300, 13.100, -69.807, 20.44, 0.0061, 0.43683, -0.89948, -0.00137, 405, 100,
 19:48:10.061,e8:da:bf:c6:3e:4f, 2015-01-01 01:06:07.920, -0.098, 0.003, -0.981, 0.122, -0.183, -23.804, , , , , , , 179.753, -0.753, -127.43, -78.300, 13.100, -69.807, 20.44, 0.0061, 0.43683, -0.89948, -0.00137, 405, 100,
 19:48:10.086,e8:da:bf:c6:3e:4f, 2015-01-01 01:06:07.920, -0.099, 0, -0.999, 0, 0, -20.02, , , , , , , 179.753, -0.747, -127.211, -78.300, 13.100, -69.807, 20.44, 0.0061, 0.43683, -0.89948, -0.00137, 405, 100,
 19:48:10.086,e8:da:bf:c6:3e:4f, 2015-01-01 01:06:07.920, -0.053, 0, -0.991, -0.061, 0, -16.663, , , , , , , 179.753, -0.747, -127.035, -78.300, 13.100, -69.807, 20.44, 0.0061, 0.43683, -0.89948, -0.00137, 405, 100,
 19:48:10.086,e8:da:bf:c6:3e:4f, 2015-01-01 01:06:07.920, -0.044, 0, -0.972, 0.061, 0, -16.541, , , , , , , 179.747, -0.747, -126.87, -78.300, 13.100, -69.807, 20.44, 0.0061, 0.43683, -0.89948, -0.00137, 405, 100,
 19:48:10.086,e8:da:bf:c6:3e:4f, 2015-01-01 01:06:07.920, -0.028, 0.001, -0.97, 0.183, 0.122, -15.198, , , , , , , 179.747, -0.747, -126.711, -78.300, 13.100, -69.807, 20.44, 0.0061, 0.43683, -0.89948, -0.00137, 405, 100,
 19:48:10.144,e8:da:bf:c6:3e:4f, 2015-01-01 01:06:07.920, -0.012, 0.005, -0.986, 0.061, 0.366, -14.709, , , , , , , 179.747, -0.753, -126.568, -78.300, 13.100, -69.807, 20.44, 0.0061, 0.43683, -0.89948, -0.00137, 405, 100,
 19:48:10.144,e8:da:bf:c6:3e:4f, 2015-01-01 01:06:07.920, -0.001, 0.007, -0.993, -0.122, 0.122, -14.526, , , , , , , 179.747, -0.753, -126.42, -78.300, 13.100, -69.807, 20.44, 0.0061, 0.43683, -0.89948, -0.00137, 405, 100,
 19:48:10.144,e8:da:bf:c6:3e:4f, 2015-01-01 01:06:07.920, -0.036, 0.006, -0.979, 0, -0.366, -15.137, , , , , , , 179.747, -0.747, -126.277, -78.300, 13.100, -69.807, 20.44, 0.0061, 0.43683, -0.89948, -0.00137, 405, 100,
 19:48:10.144,e8:da:bf:c6:3e:4f, 2015-01-01 01:06:07.920, -0.048, 0.002, -0.964, 0.183, 0, -13.855, , , , , , , 179.742, -0.747, -126.129, -78.300, 13.100, -69.807, 20.44, 0.0061, 0.43683, -0.89948, -0.00137, 405, 100,
 19:48:10.169,e8:da:bf:c6:3e:4f, 2015-01-01 01:06:07.920, -0.056, 0.002, -0.976, 0.244, -0.183, -12.695, , , , , , , 179.747, -0.747, -126.002, -78.300, 13.100, -69.807, 20.44, 0.0061, 0.43683, -0.89948, -0.00137, 405, 100,
 19:48:10.170,e8:da:bf:c6:3e:4f, 2015-01-01 01:06:07.920, -0.058, 0.005, -0.999, -0.061, 0.061, -12.024, , , , , , , 179.747, -0.747, -125.876, -78.300, 13.100, -69.807, 20.44, 0.0061, 0.43683, -0.89948, -0.00137, 405, 100,
 19:48:10.170,e8:da:bf:c6:3e:4f, 2015-01-01 01:06:07.920, -0.066, 0.007, -0.995, -0.183, -0.366, -11.23, , , , , , , 179.742, -0.742, -125.766, -78.300, 13.100, -69.807, 20.44, 0.0061, 0.43683, -0.89948, -0.00137, 405, 100,
 19:48:10.170,e8:da:bf:c6:3e:4f, 2015-01-01 01:06:07.920, -0.094, 0.005, -0.966, 0.061, -0.793, -11.292, , , , , , , 179.742, -0.736, -125.656, -78.300, 13.100, -69.807, 20.44, 0.0061, 0.43683, -0.89948, -0.00137, 405, 100,
 19:48:10.226,e8:da:bf:c6:3e:4f, 2015-01-01 01:06:07.920, -0.238, 0.005, -0.956, 0.366, -1.465, -12.512, , , , , , , 179.742, -0.725, -125.535, -78.300, 13.100, -69.807, 20.44, 0.0061, 0.43683, -0.89948, -0.00137, 405, 100,
 19:48:10.227,e8:da:bf:c6:3e:4f, 2015-01-01 01:06:07.920, -0.443, 0.003, -0.984, 0.122, -2.075, -9.277, , , , , , , 179.742, -0.703, -125.425, -78.300, 13.100, -69.807, 20.44, 0.0061, 0.43683, -0.89948, -0.00137, 405, 100,
 19:48:10.227,e8:da:bf:c6:3e:4f, 2015-01-01 01:06:07.920, -0.574, -0.002, -1.013, -0.427, -0.732, 0.122, , , , , , , 179.742, -0.687, -125.381, -78.300, 13.100, -69.807, 20.44, 0.0061, 0.43683, -0.89948, -0.00137, 405, 100,
 19:48:10.227,e8:da:bf:c6:3e:4f, 2015-01-01 01:06:07.920, -0.574, -0.01, -0.996, -0.427, 0.244, 9.766, , , , , , , 179.736, -0.687, -125.442, -78.300, 13.100, -69.807, 20.44, 0.0061, 0.43683, -0.89948, -0.00137, 405, 100,
 19:48:10.275,e8:da:bf:c6:3e:4f, 2015-01-01 01:06:07.920, -0.483, -0.015, -0.959, 0.061, 0.916, 18.677, , , , , , , 179.736, -0.698, -125.59, -78.300, 13.100, -69.807, 20.44, 0.0061, 0.43683, -0.89948, -0.00137, 405, 100,
 19:48:10.276,e8:da:bf:c6:3e:4f, 2015-01-01 01:06:07.920, -0.364, -0.013, -0.964, 0.122, 1.404, 25.757, , , , , , , 179.742, -0.709, -125.821, -78.300, 13.100, -69.807, 20.44, 0.0061, 0.43683, -0.89948, -0.00137, 405, 100,
 19:48:10.276,e8:da:bf:c6:3e:4f, 2015-01-01 01:06:07.920, -0.172, -0.011, -0.99, 0, 2.197, 32.166, , , , , , , 179.742, -0.731, -126.118, -78.300, 13.100, -69.807, 20.44, 0.0061, 0.43683, -0.89948, -0.00137, 405, 100,
 19:48:10.277,e8:da:bf:c6:3e:4f, 2015-01-01 01:06:07.920, -0.01, -0.005, -1.003, -0.366, 2.258, 34.729, , , , , , , 179.747, -0.758, -126.458, -78.300, 13.100, -69.807, 20.44, 0.0061, 0.43683, -0.89948, -0.00137, 405, 100,
 19:48:10.313,e8:da:bf:c6:3e:4f, 2015-01-01 01:06:07.920, 0.071, -0.004, -0.994, -0.488, 0.427, 34.546, , , , , , , 179.742, -0.775, -126.81, -78.300, 13.100, -69.807, 20.44, 0.0061, 0.43683, -0.89948, -0.00137, 405, 100,
 19:48:10.314,e8:da:bf:c6:3e:4f, 2015-01-01 01:06:07.920, 0.08, -0.007, -0.962, -0.122, 0.793, 34.119, , , , , , , 179.747, -0.78, -127.15, -78.300, 13.100, -69.807, 20.44, 0.00635, 0.43753, -0.89914, -0.00137, 405, 100,
 19:48:10.315,e8:da:bf:c6:3e:4f, 2015-01-01 01:06:07.920, 0.326, -0.013, -0.951, 0.244, 2.747, 39.062, , , , , , , 179.747, -0.802, -127.513, -78.300, 13.100, -69.807, 20.44, 0.00635, 0.43753, -0.89914, -0.00137, 405, 100,
 19:48:10.315,e8:da:bf:c6:3e:4f, 2015-01-01 01:06:07.920, 0.889, 0.001, -0.99, 0.793, -1.221, 38.513, , , , , , , 179.758, -0.818, -127.93, -78.300, 13.100, -69.807, 20.44, 0.00635, 0.43753, -0.89914, -0.00137, 405, 100,
 19:48:10.331,e8:da:bf:c6:3e:4f, 2015-01-01 01:06:07.920, 1.012, 0.036, -1.041, -0.793, -0.671, 11.292, , , , , , , 179.764, -0.802, -128.167, -78.300, 13.100, -69.807, 20.44, 0.00635, 0.43753, -0.89914, -0.00137, 405, 100,
 19:48:10.332,e8:da:bf:c6:3e:4f, 2015-01-01 01:06:07.920, 1.042, 0.033, -1.021, -1.221, -1.282, -0.305, , , , , , , 179.753, -0.797, -128.21, -78.300, 13.100, -69.807, 20.44, 0.00635, 0.43753, -0.89914, -0.00137, 405, 100,
 19:48:10.458,e8:da:bf:c6:3e:4f, 2015-01-01 01:06:07.920, 0.722, 0.023, -0.904, 0, -2.197, -20.874, , , , , , , 179.742, -0.775, -128.095, -78.300, 13.100, -69.807, 20.44, 0.00635, 0.43753, -0.89914, -0.00137, 405, 100,
 19:48:10.458,e8:da:bf:c6:3e:4f, 2015-01-01 01:06:08.280, 0.403, 0.003, -0.846, 1.77, -0.061, -27.954, , , , , , , 179.753, -0.764, -127.842, -78.300, 13.100, -69.807, 20.44, 0.00635, 0.43753, -0.89914, -0.00137, 405, 100,
 19:48:10.481,e8:da:bf:c6:3e:4f, 2015-01-01 01:06:08.280, 0.145, 0.008, -0.951, 1.953, -2.93, -35.034, , , , , , , 179.769, -0.747, -127.529, -78.300, 13.100, -69.807, 20.44, 0.00635, 0.43753, -0.89914, -0.00137, 405, 100,
 19:48:10.481,e8:da:bf:c6:3e:4f, 2015-01-01 01:06:08.280, -0.115, 0.018, -1.11, -0.793, 0.549, -41.016, , , , , , , 179.769, -0.736, -127.139, -78.300, 13.100, -69.807, 20.44, 0.00635, 0.43753, -0.89914, -0.00137, 405, 100,
 19:48:10.481,e8:da:bf:c6:3e:4f, 2015-01-01 01:06:08.280, -0.253, 0.001, -1.102, -1.892, 0.427, -35.645, , , , , , , 179.747, -0.736, -126.749, -78.300, 13.100, -69.807, 20.44, 0.00635, 0.43753, -0.89914, -0.00137, 405, 100,
 19:48:10.482,e8:da:bf:c6:3e:4f, 2015-01-01 01:06:08.280, -0.191, -0.023, -0.931, -0.183, -1.16, -25.208, , , , , , , 179.736, -0.731, -126.458, -78.300, 13.100, -69.807, 20.44, 0.00635, 0.43753, -0.89914, -0.00137, 405, 100,
 19:48:10.482,e8:da:bf:c6:3e:4f, 2015-01-01 01:06:08.280, -0.293, -0.021, -0.841, 1.648, -1.343, -25.696, , , , , , , 179.742, -0.714, -126.211, -78.300, 13.100, -69.807, 20.44, 0.00635, 0.43753, -0.89914, -0.00137, 405, 100,
 19:48:10.482,e8:da:bf:c6:3e:4f, 2015-01-01 01:06:08.280, -0.433, -0.002, -0.993, 0.671, -0.854, -20.752, , , , , , , 179.753, -0.703, -125.975, -78.300, 13.100, -69.807, 20.44, 0.00635, 0.43753, -0.89914, -0.00137, 405, 100,
 19:48:10.482,e8:da:bf:c6:3e:4f, 2015-01-01 01:06:08.280, -0.534, 0.009, -1.111, -1.282, -1.038, -13, , , , , , , 179.747, -0.692, -125.815, -78.300, 13.100, -69.807, 20.44, 0.00635, 0.43753, -0.89914, -0.00137, 405, 100,
 19:48:10.482,e8:da:bf:c6:3e:4f, 2015-01-01 01:06:08.280, -0.6, -0.002, -1.02, -1.404, -0.244, -5.859, , , , , , , 179.731, -0.687, -125.722, -78.300, 13.100, -69.807, 20.44, 0.00635, 0.43753, -0.89914, -0.00137, 405, 100,
 19:48:10.482,e8:da:bf:c6:3e:4f, 2015-01-01 01:06:08.280, -0.532, -0.022, -0.869, 0.732, 0.671, 4.272, , , , , , , 179.731, -0.687, -125.722, -78.300, 13.100, -69.807, 20.44, 0.00635, 0.43753, -0.89914, -0.00137, 405, 100,
 19:48:10.482,e8:da:bf:c6:3e:4f, 2015-01-01 01:06:08.280, -0.364, -0.021, -0.897, 1.709, 1.892, 12.268, , , , , , , 179.742, -0.703, -125.81, -78.300, 13.100, -69.807, 20.44, 0.00635, 0.43753, -0.89914, -0.00137, 405, 100,
 19:48:10.482,e8:da:bf:c6:3e:4f, 2015-01-01 01:06:08.280, -0.161, -0.001, -1.054, 0.061, 2.563, 17.639, , , , , , , 179.753, -0.731, -125.969, -78.300, 13.100, -69.807, 20.44, 0.00635, 0.43753, -0.89914, -0.00137, 405, 100,
 19:48:10.483,e8:da:bf:c6:3e:4f, 2015-01-01 01:06:08.280, -0.004, 0.012, -1.107, -1.587, 2.258, 19.958, , , , , , , 179.747, -0.758, -126.161, -78.300, 13.100, -69.807, 20.44, 0.00635, 0.43753, -0.89914, -0.00137, 405, 100,
 19:48:10.558,e8:da:bf:c6:3e:4f, 2015-01-01 01:06:08.280, 0.065, 0.008, -0.996, -1.343, 0.671, 19.592, , , , , , , 179.731, -0.769, -126.365, -78.300, 13.100, -69.807, 20.44, 0.00635, 0.43753, -0.89914, -0.00137, 405, 100,
 19:48:10.806,e8:da:bf:c6:3e:4f, 2015-01-01 01:06:08.280, 0.077, -0.003, -0.86, 0.732, 0, 18.127, , , , , , , 179.731, -0.775, -126.557, -78.300, 13.100, -69.807, 20.44, 0.00635, 0.43753, -0.89914, -0.00137, 405, 100,
 19:48:10.830,e8:da:bf:c6:3e:4f, 2015-01-01 01:06:08.665, 0.069, 0, -0.899, 1.404, -0.122, 16.602, , , , , , , 179.747, -0.775, -126.727, -78.300, 13.100, -69.807, 20.44, 0.0061, 0.44968, -0.89313, -0.0014, 405, 100,
 19:48:10.830,e8:da:bf:c6:3e:4f, 2015-01-01 01:06:08.665, 0.063, 0.011, -1.036, 0.122, -0.122, 15.564, , , , , , , 179.758, -0.775, -126.892, -78.300, 13.100, -69.807, 20.44, 0.0061, 0.44968, -0.89313, -0.0014, 405, 100,
 19:48:10.830,e8:da:bf:c6:3e:4f, 2015-01-01 01:06:08.665, 0.053, 0.015, -1.088, -1.282, 0.366, 14.954, , , , , , , 179.753, -0.775, -127.046, -78.300, 13.100, -69.807, 20.44, 0.0061, 0.44968, -0.89313, -0.0014, 405, 100,
 19:48:10.831,e8:da:bf:c6:3e:4f, 2015-01-01 01:06:08.665, 0.104, 0.002, -0.991, -0.854, 1.099, 16.724, , , , , , , 179.742, -0.786, -127.205, -78.300, 13.100, -69.807, 20.44, 0.0061, 0.44968, -0.89313, -0.0014, 405, 100,
 19:48:10.831,e8:da:bf:c6:3e:4f, 2015-01-01 01:06:08.665, 0.304, -0.006, -0.892, 0.732, 0.977, 19.47, , , , , , , 179.742, -0.802, -127.392, -78.300, 13.100, -69.807, 20.44, 0.0061, 0.44968, -0.89313, -0.0014, 405, 100,
 19:48:10.831,e8:da:bf:c6:3e:4f, 2015-01-01 01:06:08.665, 0.457, 0.011, -0.928, 1.282, 0, 12.451, , , , , , , 179.758, -0.807, -127.562, -78.300, 13.100, -69.807, 20.44, 0.0061, 0.44968, -0.89313, -0.0014, 405, 100,
 19:48:10.868,e8:da:bf:c6:3e:4f, 2015-01-01 01:06:08.665, 0.399, 0.03, -1.035, -0.183, -0.061, 0.366, , , , , , , 179.764, -0.807, -127.617, -78.300, 13.100, -69.807, 20.44, 0.0061, 0.44968, -0.89313, -0.0014, 405, 100,
 19:48:10.868,e8:da:bf:c6:3e:4f, 2015-01-01 01:06:08.665, 0.332, 0.024, -1.038, -0.854, -0.732, -3.662, , , , , , , 179.753, -0.802, -127.595, -78.300, 13.100, -69.807, 20.44, 0.0061, 0.44968, -0.89313, -0.0014, 405, 100,
 19:48:10.869,e8:da:bf:c6:3e:4f, 2015-01-01 01:06:08.665, 0.198, 0.011, -0.943, 0, -1.16, -10.01, , , , , , , 179.747, -0.791, -127.529, -78.300, 13.100, -69.807, 20.44, 0.0061, 0.44968, -0.89313, -0.0014, 405, 100,
 19:48:10.869,e8:da:bf:c6:3e:4f, 2015-01-01 01:06:08.665, 0.085, 0.002, -0.918, 0.916, -1.526, -12.268, , , , , , , 179.753, -0.78, -127.414, -78.300, 13.100, -69.807, 20.44, 0.0061, 0.44968, -0.89313, -0.0014, 405, 100,
 19:48:10.869,e8:da:bf:c6:3e:4f, 2015-01-01 01:06:08.665, 0.002, 0.007, -0.99, 0.427, -0.977, -13.367, , , , , , , 179.758, -0.764, -127.288, -78.300, 13.100, -69.807, 20.44, 0.0061, 0.44968, -0.89313, -0.0014, 405, 100,
 19:48:10.869,e8:da:bf:c6:3e:4f, 2015-01-01 01:06:08.665, -0.049, 0.013, -1.049, -0.671, -0.549, -12.878, , , , , , , 179.758, -0.758, -127.156, -78.300, 13.100, -69.807, 20.44, 0.0061, 0.44968, -0.89313, -0.0014, 405, 100,
 19:48:10.869,e8:da:bf:c6:3e:4f, 2015-01-01 01:06:08.665, -0.051, 0.007, -1.008, -0.671, -0.61, -10.498, , , , , , , 179.747, -0.747, -127.04, -78.300, 13.100, -69.807, 20.44, 0.0061, 0.44968, -0.89313, -0.0014, 405, 100,
 19:48:10.869,e8:da:bf:c6:3e:4f, 2015-01-01 01:06:08.665, -0.057, 0, -0.93, 0.183, -0.061, -9.644, , , , , , , 179.742, -0.747, -126.942, -78.300, 13.100, -69.807, 20.44, 0.0061, 0.44968, -0.89313, -0.0014, 405, 100,
 19:48:10.870,e8:da:bf:c6:3e:4f, 2015-01-01 01:06:08.665, -0.054, 0, -0.935, 0.732, 0, -8.362, , , , , , , 179.747, -0.747, -126.854, -78.300, 13.100, -69.807, 20.44, 0.0061, 0.44968, -0.89313, -0.0014, 405, 100,
 19:48:10.870,e8:da:bf:c6:3e:4f, 2015-01-01 01:06:08.665, -0.06, 0.006, -1.005, 0.122, -0.122, -7.69, , , , , , , 179.753, -0.747, -126.777, -78.300, 13.100, -69.807, 20.44, 0.0061, 0.44968, -0.89313, -0.0014, 405, 100,
 19:48:10.870,e8:da:bf:c6:3e:4f, 2015-01-01 01:06:08.665, -0.067, 0.009, -1.031, -0.488, -0.488, -7.385, , , , , , , 179.753, -0.742, -126.705, -78.300, 13.100, -69.807, 20.44, 0.0061, 0.44968, -0.89313, -0.0014, 405, 100,
 19:48:10.870,e8:da:bf:c6:3e:4f, 2015-01-01 01:06:08.665, -0.087, 0.006, -0.981, -0.244, -0.305, -7.568, , , , , , , 179.747, -0.736, -126.628, -78.300, 13.100, -69.807, 20.44, 0.0061, 0.44968, -0.89313, -0.0014, 405, 100,
 19:48:10.870,e8:da:bf:c6:3e:4f, 2015-01-01 01:06:08.665, -0.132, 0.003, -0.938, 0.366, 0.061, -7.263, , , , , , , 179.747, -0.736, -126.557, -78.300, 13.100, -69.807, 20.44, 0.0061, 0.44968, -0.89313, -0.0014, 405, 100,
 19:48:10.870,e8:da:bf:c6:3e:4f, 2015-01-01 01:06:08.665, -0.158, 0.003, -0.964, 0.366, 0.183, -4.395, , , , , , , 179.747, -0.736, -126.497, -78.300, 13.100, -69.807, 20.44, 0.0061, 0.44968, -0.89313, -0.0014, 405, 100,
 19:48:10.871,e8:da:bf:c6:3e:4f, 2015-01-01 01:06:08.665, -0.101, 0.005, -1.012, -0.122, 0.061, 0.732, , , , , , , 179.747, -0.736, -126.486, -78.300, 13.100, -69.807, 20.44, 0.0061, 0.44968, -0.89313, -0.0014, 405, 100,
 19:48:10.871,e8:da:bf:c6:3e:4f, 2015-01-01 01:06:08.665, -0.062, 0.006, -1.002, -0.305, 0.122, 1.709, , , , , , , 179.747, -0.742, -126.502, -78.300, 13.100, -69.807, 20.44, 0.0061, 0.44968, -0.89313, -0.0014, 405, 100,
 19:48:10.871,e8:da:bf:c6:3e:4f, 2015-01-01 01:06:08.665, -0.03, 0.002, -0.962, 0, 0.366, 2.93, , , , , , , 179.747, -0.742, -126.53, -78.300, 13.100, -69.807, 20.44, 0.0061, 0.44968, -0.89313, -0.0014, 405, 100,
 19:48:10.871,e8:da:bf:c6:3e:4f, 2015-01-01 01:06:08.665, -0.006, 0.003, -0.962, 0.244, 0.244, 3.662, , , , , , , 179.747, -0.747, -126.562, -78.300, 13.100, -69.807, 20.44, 0.0061, 0.44968, -0.89313, -0.0014, 405, 100,
 19:48:10.871,e8:da:bf:c6:3e:4f, 2015-01-01 01:06:08.665, 0, 0.008, -0.991, 0, 0.122, 3.357, , , , , , , 179.747, -0.747, -126.601, -78.300, 13.100, -69.807, 20.44, 0.0061, 0.44968, -0.89313, -0.0014, 405, 100,
 19:48:10.871,e8:da:bf:c6:3e:4f, 2015-01-01 01:06:08.665, 0.007, 0.01, -1.002, -0.244, 0.122, 3.723, , , , , , , 179.747, -0.753, -126.639, -78.300, 13.100, -69.807, 20.44, 0.0061, 0.44968, -0.89313, -0.0014, 405, 100,
 19:48:10.871,e8:da:bf:c6:3e:4f, 2015-01-01 01:06:08.665, 0.008, 0.009, -0.978, -0.122, 0, 3.601, , , , , , , 179.747, -0.753, -126.678, -78.300, 13.100, -69.807, 20.44, 0.0061, 0.44968, -0.89313, -0.0014, 405, 100,
 19:48:10.872,e8:da:bf:c6:3e:4f, 2015-01-01 01:06:08.665, 0.012, 0.006, -0.956, 0.183, 0.122, 3.662, , , , , , , 179.747, -0.753, -126.716, -78.300, 13.100, -69.807, 20.44, 0.0061, 0.44968, -0.89313, -0.0014, 405, 100,
 19:48:10.872,e8:da:bf:c6:3e:4f, 2015-01-01 01:06:08.665, 0.021, 0.006, -0.971, 0.305, 0, 3.906, , , , , , , 179.753, -0.753, -126.755, -78.300, 13.100, -69.807, 20.44, 0.0061, 0.44968, -0.89313, -0.0014, 405, 100,
 19:48:10.872,e8:da:bf:c6:3e:4f, 2015-01-01 01:06:08.665, 0.03, 0.009, -1.002, -0.061, 0.183, 3.723, , , , , , , 179.753, -0.758, -126.799, -78.300, 13.100, -69.807, 20.44, 0.0061, 0.44968, -0.89313, -0.0014, 405, 100,
 19:48:10.872,e8:da:bf:c6:3e:4f, 2015-01-01 01:06:08.665, 0.038, 0.009, -1.001, -0.305, 0, 3.479, , , , , , , 179.747, -0.758, -126.837, -78.300, 13.100, -69.807, 20.44, 0.0061, 0.44968, -0.89313, -0.0014, 405, 100,
 19:48:10.872,e8:da:bf:c6:3e:4f, 2015-01-01 01:06:08.665, 0.037, 0.008, -0.974, -0.122, 0, 2.808, , , , , , , 179.747, -0.758, -126.87, -78.300, 13.100, -69.807, 20.44, 0.0061, 0.44968, -0.89313, -0.0014, 405, 100,
 19:48:10.872,e8:da:bf:c6:3e:4f, 2015-01-01 01:06:08.665, 0.035, 0.007, -0.958, 0.183, 0.061, 2.441, , , , , , , 179.747, -0.764, -126.898, -78.300, 13.100, -69.807, 20.44, 0.0061, 0.44968, -0.89313, -0.0014, 405, 100,
 19:48:10.873,e8:da:bf:c6:3e:4f, 2015-01-01 01:06:08.665, 0.037, 0.009, -0.974, 0.183, 0.061, 2.258, , , , , , , 179.753, -0.764, -126.925, -78.300, 13.100, -69.807, 20.44, 0.0061, 0.44968, -0.89313, -0.0014, 405, 100,
 19:48:10.889,e8:da:bf:c6:3e:4f, 2015-01-01 01:06:08.665, 0.042, 0.01, -0.995, -0.061, 0.061, 2.014, , , , , , , 179.753, -0.764, -126.947, -78.300, 13.100, -69.807, 20.44, 0.0061, 0.44968, -0.89313, -0.0014, 405, 100,
 19:48:10.889,e8:da:bf:c6:3e:4f, 2015-01-01 01:06:08.665, 0.046, 0.008, -0.994, -0.122, 0, 1.526, , , , , , , 179.747, -0.764, -126.969, -78.300, 13.100, -69.807, 20.44, 0.0061, 0.44968, -0.89313, -0.0014, 405, 100,
 19:48:10.889,e8:da:bf:c6:3e:4f, 2015-01-01 01:06:08.665, 0.046, 0.007, -0.978, -0.061, 0, 0.977, , , , , , , 179.747, -0.764, -126.98, -78.300, 13.100, -69.807, 20.44, 0.0061, 0.44968, -0.89313, -0.0014, 405, 100,
 19:48:10.889,e8:da:bf:c6:3e:4f, 2015-01-01 01:06:08.665, 0.042, 0.007, -0.969, 0.061, -0.061, 0.427, , , , , , , 179.747, -0.764, -126.991, -78.300, 13.100, -69.807, 20.44, 0.0061, 0.44968, -0.89313, -0.0014, 405, 100,
 19:48:10.889,e8:da:bf:c6:3e:4f, 2015-01-01 01:06:08.665, 0.041, 0.009, -0.98, 0, 0, 0, , , , , , , 179.747, -0.764, -126.996, -78.300, 13.100, -69.807, 20.44, 0.0061, 0.44968, -0.89313, -0.0014, 405, 100,
 19:48:10.890,e8:da:bf:c6:3e:4f, 2015-01-01 01:06:08.665, 0.04, 0.01, -0.988, -0.061, 0, -0.427, , , , , , , 179.747, -0.764, -126.996, -78.300, 13.100, -69.807, 20.44, 0.0061, 0.44968, -0.89313, -0.0014, 405, 100,
 19:48:10.890,e8:da:bf:c6:3e:4f, 2015-01-01 01:06:08.665, 0.033, 0.009, -0.98, 0, 0, -0.977, , , , , , , 179.747, -0.764, -126.985, -78.300, 13.100, -69.807, 20.44, 0.0061, 0.44968, -0.89313, -0.0014, 405, 100,
 19:48:10.890,e8:da:bf:c6:3e:4f, 2015-01-01 01:06:08.665, 0.028, 0.006, -0.972, 0.122, 0, -1.343, , , , , , , 179.747, -0.764, -126.98, -78.300, 13.100, -69.807, 20.44, 0.0061, 0.44968, -0.89313, -0.0014, 405, 100,
 19:48:11.028,e8:da:bf:c6:3e:4f, 2015-01-01 01:06:08.665, 0.025, 0.007, -0.977, 0.122, 0, -1.465, , , , , , , 179.753, -0.764, -126.964, -78.300, 13.100, -69.807, 20.44, 0.0061, 0.44968, -0.89313, -0.0014, 405, 100,
 19:48:11.081,e8:da:bf:c6:3e:4f, 2015-01-01 01:06:08.665, 0.024, 0.008, -0.989, 0, 0, -1.587, , , , , , , 179.753, -0.764, -126.953, -78.300, 13.100, -69.807, 20.44, 0.0061, 0.44968, -0.89313, -0.0014, 405, 100,
 19:48:11.082,e8:da:bf:c6:3e:4f, 2015-01-01 01:06:08.665, 0.022, 0.008, -0.99, -0.061, -0.061, -1.831, , , , , , , 179.747, -0.764, -126.936, -78.300, 13.100, -69.807, 20.44, 0.00616, 0.44824, -0.89383, -0.00134, 405, 100,
 19:48:11.082,e8:da:bf:c6:3e:4f, 2015-01-01 01:06:08.665, 0.017, 0.008, -0.978, 0, -0.061, -2.014, , , , , , , 179.747, -0.764, -126.92, -78.300, 13.100, -69.807, 20.44, 0.00616, 0.44824, -0.89383, -0.00134, 405, 100,
 19:48:11.098,e8:da:bf:c6:3e:4f, 2015-01-01 01:06:08.665, 0.014, 0.007, -0.97, 0.122, -0.061, -2.014, , , , , , , 179.747, -0.764, -126.898, -78.300, 13.100, -69.807, 20.44, 0.00616, 0.44824, -0.89383, -0.00134, 405, 100,
 19:48:11.098,e8:da:bf:c6:3e:4f, 2015-01-01 01:06:08.665, 0.014, 0.007, -0.978, 0.122, -0.061, -2.014, , , , , , , 179.753, -0.758, -126.881, -78.300, 13.100, -69.807, 20.44, 0.00616, 0.44824, -0.89383, -0.00134, 405, 100,
 19:48:11.098,e8:da:bf:c6:3e:4f, 2015-01-01 01:06:08.665, 0.014, 0.007, -0.988, 0, -0.061, -2.136, , , , , , , 179.753, -0.758, -126.859, -78.300, 13.100, -69.807, 20.44, 0.00616, 0.44824, -0.89383, -0.00134, 405, 100,
 19:48:11.098,e8:da:bf:c6:3e:4f, 2015-01-01 01:06:08.665, 0.01, 0.007, -0.99, -0.061, -0.122, -2.319, , , , , , , 179.753, -0.758, -126.843, -78.300, 13.100, -69.807, 20.44, 0.00616, 0.44824, -0.89383, -0.00134, 405, 100,
 19:48:11.098,e8:da:bf:c6:3e:4f, 2015-01-01 01:06:08.665, 0.003, 0.006, -0.98, 0, -0.122, -2.441, , , , , , , 179.747, -0.758, -126.815, -78.300, 13.100, -69.807, 20.44, 0.00616, 0.44824, -0.89383, -0.00134, 405, 100,
 19:48:11.099,e8:da:bf:c6:3e:4f, 2015-01-01 01:06:08.665, 0, 0.007, -0.974, 0.061, -0.122, -2.136, , , , , , , 179.747, -0.758, -126.799, -78.300, 13.100, -69.807, 20.44, 0.00616, 0.44824, -0.89383, -0.00134, 405, 100,
 19:48:11.099,e8:da:bf:c6:3e:4f, 2015-01-01 01:06:08.665, -0.001, 0.008, -0.98, 0.061, -0.061, -1.892, , , , , , , 179.753, -0.758, -126.777, -78.300, 13.100, -69.807, 20.44, 0.00616, 0.44824, -0.89383, -0.00134, 405, 100,
 19:48:11.099,e8:da:bf:c6:3e:4f, 2015-01-01 01:06:08.665, 0, 0.009, -0.985, 0, -0.061, -1.648, , , , , , , 179.753, -0.758, -126.76, -78.300, 13.100, -69.807, 20.44, 0.00616, 0.44824, -0.89383, -0.00134, 405, 100,
 19:48:11.099,e8:da:bf:c6:3e:4f, 2015-01-01 01:06:08.665, -0.003, 0.007, -0.98, 0, -0.122, -1.648, , , , , , , 179.753, -0.753, -126.749, -78.300, 13.100, -69.807, 20.44, 0.00616, 0.44824, -0.89383, -0.00134, 405, 100,
 19:48:11.099,e8:da:bf:c6:3e:4f, 2015-01-01 01:06:08.665, -0.007, 0.005, -0.977, 0, -0.122, -1.465, , , , , , , 179.753, -0.753, -126.733, -78.300, 13.100, -69.807, 20.44, 0.00616, 0.44824, -0.89383, -0.00134, 405, 100,
 19:48:11.099,e8:da:bf:c6:3e:4f, 2015-01-01 01:06:08.665, -0.009, 0.006, -0.982, 0, -0.061, -1.099, , , , , , , 179.753, -0.753, -126.722, -78.300, 13.100, -69.807, 20.44, 0.00616, 0.44824, -0.89383, -0.00134, 405, 100,
 19:48:11.100,e8:da:bf:c6:3e:4f, 2015-01-01 01:06:08.665, -0.008, 0.007, -0.988, 0, 0, -0.793, , , , , , , 179.753, -0.753, -126.716, -78.300, 13.100, -69.807, 20.44, 0.00616, 0.44824, -0.89383, -0.00134, 405, 100,
 19:48:11.100,e8:da:bf:c6:3e:4f, 2015-01-01 01:06:08.665, -0.008, 0.007, -0.984, 0, 0, -0.61, , , , , , , 179.747, -0.753, -126.711, -78.300, 13.100, -69.807, 20.44, 0.00616, 0.44824, -0.89383, -0.00134, 405, 100,
 19:48:11.100,e8:da:bf:c6:3e:4f, 2015-01-01 01:06:08.665, -0.009, 0.007, -0.976, 0, 0, -0.427, , , , , , , 179.747, -0.753, -126.705, -78.300, 13.100, -69.807, 20.44, 0.00616, 0.44824, -0.89383, -0.00134, 405, 100,
 19:48:11.100,e8:da:bf:c6:3e:4f, 2015-01-01 01:06:08.665, -0.01, 0.007, -0.974, 0.061, 0, -0.122, , , , , , , 179.747, -0.753, -126.705, -78.300, 13.100, -69.807, 20.44, 0.00616, 0.44824, -0.89383, -0.00134, 405, 100,
 19:48:11.100,e8:da:bf:c6:3e:4f, 2015-01-01 01:06:08.665, -0.007, 0.007, -0.98, 0.061, 0, 0.244, , , , , , , 179.753, -0.753, -126.705, -78.300, 13.100, -69.807, 20.44, 0.00616, 0.44824, -0.89383, -0.00134, 405, 100,
 19:48:11.132,e8:da:bf:c6:3e:4f, 2015-01-01 01:06:09.025, -0.001, 0.007, -0.987, 0, 0, 0.61, , , , , , , 179.753, -0.753, -126.716, -78.300, 13.100, -69.807, 20.44, 0.00616, 0.44824, -0.89383, -0.00134, 405, 100,
 19:48:11.132,e8:da:bf:c6:3e:4f, 2015-01-01 01:06:09.025, 0.004, 0.007, -0.986, 0, 0, 0.732, , , , , , , 179.753, -0.753, -126.722, -78.300, 13.100, -69.807, 20.44, 0.00616, 0.44824, -0.89383, -0.00134, 405, 100,
 19:48:11.132,e8:da:bf:c6:3e:4f, 2015-01-01 01:06:09.025, 0.007, 0.007, -0.978, 0, 0, 0.732, , , , , , , 179.753, -0.753, -126.733, -78.300, 13.100, -69.807, 20.44, 0.00616, 0.44824, -0.89383, -0.00134, 405, 100,
 19:48:11.132,e8:da:bf:c6:3e:4f, 2015-01-01 01:06:09.025, 0.006, 0.007, -0.975, 0, 0, 0.793, , , , , , , 179.753, -0.753, -126.744, -78.300, 13.100, -69.807, 20.44, 0.00616, 0.44824, -0.89383, -0.00134, 405, 100,
 19:48:11.348,e8:da:bf:c6:3e:4f, 2015-01-01 01:06:09.025, 0.007, 0.008, -0.98, 0, 0, 0.854, , , , , , , 179.753, -0.753, -126.755, -78.300, 13.100, -69.807, 20.44, 0.00616, 0.44824, -0.89383, -0.00134, 405, 100,
 19:48:11.481,e8:da:bf:c6:3e:4f, 2015-01-01 01:06:09.025, 0.009, 0.008, -0.984, 0, 0, 0.916, , , , , , , 179.753, -0.753, -126.766, -78.300, 13.100, -69.807, 20.44, 0.00616, 0.44824, -0.89383, -0.00134, 405, 100,
 19:48:11.481,e8:da:bf:c6:3e:4f, 2015-01-01 01:06:09.380, 0.009, 0.007, -0.983, 0, 0, 0.916, , , , , , , 179.753, -0.758, -126.777, -78.300, 13.100, -69.807, 20.44, 0.00616, 0.44766, -0.89413, -0.00131, 405, 100,
 19:48:11.481,e8:da:bf:c6:3e:4f, 2015-01-01 01:06:09.380, 0.009, 0.007, -0.981, 0, 0, 0.916, , , , , , , 179.753, -0.758, -126.788, -78.300, 13.100, -69.807, 20.44, 0.00616, 0.44766, -0.89413, -0.00131, 405, 100,
 19:48:11.498,e8:da:bf:c6:3e:4f, 2015-01-01 01:06:09.380, 0.011, 0.008, -0.982, 0, 0, 0.977, , , , , , , 179.753, -0.758, -126.799, -78.300, 13.100, -69.807, 20.44, 0.00616, 0.44766, -0.89413, -0.00131, 405, 100,
 19:48:11.498,e8:da:bf:c6:3e:4f, 2015-01-01 01:06:09.380, 0.015, 0.008, -0.982, 0, 0, 0.977, , , , , , , 179.753, -0.758, -126.81, -78.300, 13.100, -69.807, 20.44, 0.00616, 0.44766, -0.89413, -0.00131, 405, 100,
 19:48:11.498,e8:da:bf:c6:3e:4f, 2015-01-01 01:06:09.380, 0.019, 0.008, -0.979, 0, 0, 0.916, , , , , , , 179.753, -0.758, -126.826, -78.300, 13.100, -69.807, 20.44, 0.00616, 0.44766, -0.89413, -0.00131, 405, 100,
 19:48:11.498,e8:da:bf:c6:3e:4f, 2015-01-01 01:06:09.380, 0.021, 0.008, -0.978, 0, 0, 0.793, , , , , , , 179.753, -0.758, -126.837, -78.300, 13.100, -69.807, 20.44, 0.00616, 0.44766, -0.89413, -0.00131, 405, 100,
 19:48:11.498,e8:da:bf:c6:3e:4f, 2015-01-01 01:06:09.380, 0.021, 0.007, -0.98, 0, 0, 0.549, , , , , , , 179.753, -0.758, -126.843, -78.300, 13.100, -69.807, 20.44, 0.00616, 0.44766, -0.89413, -0.00131, 405, 100,
 19:48:11.499,e8:da:bf:c6:3e:4f, 2015-01-01 01:06:09.380, 0.021, 0.007, -0.983, 0, 0, 0.366, , , , , , , 179.753, -0.758, -126.848, -78.300, 13.100, -69.807, 20.44, 0.00616, 0.44766, -0.89413, -0.00131, 405, 100,
 19:48:11.499,e8:da:bf:c6:3e:4f, 2015-01-01 01:06:09.380, 0.021, 0.008, -0.984, 0, 0, 0.244, , , , , , , 179.753, -0.758, -126.854, -78.300, 13.100, -69.807, 20.44, 0.00616, 0.44766, -0.89413, -0.00131, 405, 100,
 19:48:11.499,e8:da:bf:c6:3e:4f, 2015-01-01 01:06:09.380, 0.022, 0.008, -0.981, 0, 0, 0.122, , , , , , , 179.753, -0.758, -126.859, -78.300, 13.100, -69.807, 20.44, 0.00616, 0.44766, -0.89413, -0.00131, 405, 100,
 19:48:11.499,e8:da:bf:c6:3e:4f, 2015-01-01 01:06:09.380, 0.021, 0.008, -0.977, 0, 0, 0, , , , , , , 179.753, -0.758, -126.865, -78.300, 13.100, -69.807, 20.44, 0.00616, 0.44766, -0.89413, -0.00131, 405, 100,
 19:48:11.499,e8:da:bf:c6:3e:4f, 2015-01-01 01:06:09.380, 0.021, 0.008, -0.978, 0, 0, -0.061, , , , , , , 179.753, -0.758, -126.865, -78.300, 13.100, -69.807, 20.44, 0.00616, 0.44766, -0.89413, -0.00131, 405, 100,
 19:48:11.499,e8:da:bf:c6:3e:4f, 2015-01-01 01:06:09.380, 0.021, 0.008, -0.982, 0, 0, -0.183, , , , , , , 179.753, -0.758, -126.865, -78.300, 13.100, -69.807, 20.44, 0.00616, 0.44766, -0.89413, -0.00131, 405, 100,
 19:48:11.499,e8:da:bf:c6:3e:4f, 2015-01-01 01:06:09.380, 0.021, 0.008, -0.984, 0, 0, -0.305, , , , , , , 179.753, -0.758, -126.865, -78.300, 13.100, -69.807, 20.44, 0.00616, 0.44766, -0.89413, -0.00131, 405, 100,
 19:48:11.500,e8:da:bf:c6:3e:4f, 2015-01-01 01:06:09.380, 0.021, 0.007, -0.982, 0, 0, -0.549, , , , , , , 179.753, -0.758, -126.859, -78.300, 13.100, -69.807, 20.44, 0.00616, 0.44766, -0.89413, -0.00131, 405, 100,
 19:48:11.500,e8:da:bf:c6:3e:4f, 2015-01-01 01:06:09.380, 0.017, 0.007, -0.98, 0, 0, -0.793, , , , , , , 179.753, -0.758, -126.854, -78.300, 13.100, -69.807, 20.44, 0.00616, 0.44766, -0.89413, -0.00131, 405, 100,
 19:48:11.500,e8:da:bf:c6:3e:4f, 2015-01-01 01:06:09.380, 0.013, 0.008, -0.98, 0, 0, -0.916, , , , , , , 179.753, -0.758, -126.848, -78.300, 13.100, -69.807, 20.44, 0.00616, 0.44766, -0.89413, -0.00131, 405, 100,
 19:48:11.500,e8:da:bf:c6:3e:4f, 2015-01-01 01:06:09.380, 0.01, 0.009, -0.981, 0, 0, -0.793, , , , , , , 179.753, -0.758, -126.843, -78.300, 13.100, -69.807, 20.44, 0.00616, 0.44766, -0.89413, -0.00131, 405, 100,
 19:48:11.500,e8:da:bf:c6:3e:4f, 2015-01-01 01:06:09.380, 0.01, 0.009, -0.98, 0, 0, -0.793, , , , , , , 179.753, -0.758, -126.837, -78.300, 13.100, -69.807, 20.44, 0.00616, 0.44766, -0.89413, -0.00131, 405, 100,
 19:48:11.501,e8:da:bf:c6:3e:4f, 2015-01-01 01:06:09.380, 0.009, 0.008, -0.98, 0, 0, -0.793, , , , , , , 179.753, -0.758, -126.826, -78.300, 13.100, -69.807, 20.44, 0.00616, 0.44766, -0.89413, -0.00131, 405, 100,
 19:48:11.501,e8:da:bf:c6:3e:4f, 2015-01-01 01:06:09.380, 0.007, 0.007, -0.982, 0, -0.061, -0.854, , , , , , , 179.753, -0.758, -126.821, -78.300, 13.100, -69.807, 20.44, 0.00616, 0.44766, -0.89413, -0.00131, 405, 100,
 19:48:11.501,e8:da:bf:c6:3e:4f, 2015-01-01 01:06:09.380, 0.005, 0.007, -0.984, 0, -0.061, -0.854, , , , , , , 179.753, -0.758, -126.815, -78.300, 13.100, -69.807, 20.44, 0.00616, 0.44766, -0.89413, -0.00131, 405, 100,
 19:48:11.501,e8:da:bf:c6:3e:4f, 2015-01-01 01:06:09.380, 0.006, 0.007, -0.983, 0, -0.061, -0.732, , , , , , , 179.753, -0.753, -126.81, -78.300, 13.100, -69.807, 20.44, 0.00616, 0.44766, -0.89413, -0.00131, 405, 100,
 19:48:11.501,e8:da:bf:c6:3e:4f, 2015-01-01 01:06:09.380, 0.006, 0.007, -0.979, 0, 0, -0.671, , , , , , , 179.753, -0.753, -126.804, -78.300, 13.100, -69.807, 20.44, 0.00616, 0.44766, -0.89413, -0.00131, 405, 100,
 19:48:11.502,e8:da:bf:c6:3e:4f, 2015-01-01 01:06:09.380, 0.005, 0.007, -0.978, 0.061, 0, -0.732, , , , , , , 179.753, -0.753, -126.799, -78.300, 13.100, -69.807, 20.44, 0.00616, 0.44766, -0.89413, -0.00131, 405, 100,
 19:48:11.502,e8:da:bf:c6:3e:4f, 2015-01-01 01:06:09.380, 0.003, 0.007, -0.98, 0.061, 0, -0.732, , , , , , , 179.753, -0.753, -126.793, -78.300, 13.100, -69.807, 20.44, 0.00616, 0.44766, -0.89413, -0.00131, 405, 100,
 19:48:11.502,e8:da:bf:c6:3e:4f, 2015-01-01 01:06:09.380, 0.002, 0.008, -0.984, 0, 0, -0.549, , , , , , , 179.753, -0.753, -126.788, -78.300, 13.100, -69.807, 20.44, 0.00616, 0.44766, -0.89413, -0.00131, 405, 100,
 19:48:11.502,e8:da:bf:c6:3e:4f, 2015-01-01 01:06:09.380, 0.002, 0.008, -0.983, 0, 0, -0.427, , , , , , , 179.753, -0.753, -126.782, -78.300, 13.100, -69.807, 20.44, 0.00616, 0.44766, -0.89413, -0.00131, 405, 100,
 19:48:11.502,e8:da:bf:c6:3e:4f, 2015-01-01 01:06:09.380, 0.004, 0.007, -0.98, 0, 0, -0.183, , , , , , , 179.753, -0.753, -126.782, -78.300, 13.100, -69.807, 20.44, 0.00616, 0.44766, -0.89413, -0.00131, 405, 100,
 19:48:11.503,e8:da:bf:c6:3e:4f, 2015-01-01 01:06:09.380, 0.014, 0.008, -0.979, 0, 0, -0.122, , , , , , , 179.753, -0.753, -126.782, -78.300, 13.100, -69.807, 20.44, 0.00616, 0.44766, -0.89413, -0.00131, 405, 100,
 19:48:11.503,e8:da:bf:c6:3e:4f, 2015-01-01 01:06:09.380, 0.023, 0.007, -0.979, 0, 0.671, 0.122, , , , , , , 179.753, -0.758, -126.782, -78.300, 13.100, -69.807, 20.44, 0.00616, 0.44766, -0.89413, -0.00131, 405, 100,
 19:48:11.503,e8:da:bf:c6:3e:4f, 2015-01-01 01:06:09.380, 0.105, 0.005, -0.985, 0, 1.953, 3.54, , , , , , , 179.753, -0.775, -126.799, -78.300, 13.100, -69.807, 20.44, 0.00616, 0.44766, -0.89413, -0.00131, 405, 100,
 19:48:11.503,e8:da:bf:c6:3e:4f, 2015-01-01 01:06:09.380, 0.63, 0.002, -0.994, 0.061, 1.038, 10.864, , , , , , , 179.753, -0.791, -126.881, -78.300, 13.100, -69.807, 20.44, 0.00616, 0.44766, -0.89413, -0.00131, 405, 100,
 19:48:11.504,e8:da:bf:c6:3e:4f, 2015-01-01 01:06:09.380, 0.802, 0.031, -1.006, -0.183, -1.038, -10.01, , , , , , , 179.753, -0.786, -126.914, -78.300, 13.100, -69.807, 20.44, 0.00616, 0.44766, -0.89413, -0.00131, 405, 100,
 19:48:11.579,e8:da:bf:c6:3e:4f, 2015-01-01 01:06:09.380, 0.934, 0.026, -1.007, -0.916, 0.61, -22.583, , , , , , , 179.747, -0.786, -126.722, -78.300, 13.100, -69.807, 20.44, 0.00616, 0.44766, -0.89413, -0.00131, 405, 100,
 19:48:11.579,e8:da:bf:c6:3e:4f, 2015-01-01 01:06:09.380, 1.093, 0.016, -0.974, -0.488, 0, -32.471, , , , , , , 179.736, -0.786, -126.458, -78.300, 13.100, -69.807, 20.44, 0.00616, 0.44766, -0.89413, -0.00131, 405, 100,
 19:48:11.579,e8:da:bf:c6:3e:4f, 2015-01-01 01:06:09.380, 1.146, 0.004, -0.937, 0, -0.061, -51.331, , , , , , , 179.731, -0.78, -126.03, -78.300, 13.100, -69.807, 20.44, 0.00616, 0.44766, -0.89413, -0.00131, 405, 100,
 19:48:11.580,e8:da:bf:c6:3e:4f, 2015-01-01 01:06:09.380, 1.108, -0.013, -0.932, 0.732, -0.732, -66.162, , , , , , , 179.725, -0.775, -125.436, -78.300, 13.100, -69.807, 20.44, 0.00616, 0.44766, -0.89413, -0.00131, 405, 100,
 19:48:11.596,e8:da:bf:c6:3e:4f, 2015-01-01 01:06:09.380, 0.991, -0.033, -0.977, 0.549, -0.671, -82.52, , , , , , , 179.725, -0.764, -124.684, -78.300, 13.100, -69.807, 20.44, 0.00616, 0.44766, -0.89413, -0.00131, 405, 100,
 19:48:11.596,e8:da:bf:c6:3e:4f, 2015-01-01 01:06:09.380, 0.904, -0.06, -1.023, 0, -0.305, -94.421, , , , , , , 179.72, -0.753, -123.794, -78.300, 13.100, -69.807, 20.44, 0.00616, 0.44766, -0.89413, -0.00131, 405, 100,
 19:48:11.596,e8:da:bf:c6:3e:4f, 2015-01-01 01:06:09.380, 0.657, -0.092, -1.012, -0.305, -1.221, -109.07, , , , , , , 179.709, -0.736, -122.778, -78.300, 13.100, -69.807, 20.44, 0.00616, 0.44766, -0.89413, -0.00131, 405, 100,
 19:48:11.596,e8:da:bf:c6:3e:4f, 2015-01-01 01:06:09.380, 0.367, -0.143, -0.932, 0.427, 1.709, -119.507, , , , , , , 179.698, -0.725, -121.619, -78.300, 13.100, -69.807, 20.44, 0.00616, 0.44766, -0.89413, -0.00131, 405, 100,
 19:48:11.612,e8:da:bf:c6:3e:4f, 2015-01-01 01:06:09.380, 0.226, -0.171, -0.881, 2.136, 1.953, -121.033, , , , , , , 179.698, -0.747, -120.416, -78.300, 13.100, -69.807, 20.44, 0.00616, 0.44766, -0.89413, -0.00131, 405, 100,
 19:48:11.612,e8:da:bf:c6:3e:4f, 2015-01-01 01:06:09.380, 0.075, -0.168, -0.96, 2.014, -0.854, -127.93, , , , , , , 179.709, -0.736, -119.174, -78.300, 13.100, -69.807, 20.44, 0.00616, 0.44766, -0.89413, -0.00131, 405, 100,
 19:48:11.612,e8:da:bf:c6:3e:4f, 2015-01-01 01:06:09.380, -0.094, -0.165, -1.091, 0, 0.732, -131.409, , , , , , , 179.709, -0.725, -117.867, -78.300, 13.100, -69.807, 20.44, 0.00616, 0.44766, -0.89413, -0.00131, 405, 100,
 19:48:11.612,e8:da:bf:c6:3e:4f, 2015-01-01 01:06:09.380, -0.17, -0.175, -1.098, -1.343, 0.854, -126.282, , , , , , , 179.687, -0.725, -116.581, -78.300, 13.100, -69.807, 20.44, 0.00616, 0.44766, -0.89413, -0.00131, 405, 100,
 19:48:11.785,e8:da:bf:c6:3e:4f, 2015-01-01 01:06:09.380, -0.078, -0.19, -0.955, -0.122, 0.793, -118.652, , , , , , , 179.665, -0.725, -115.362, -78.300, 13.100, -69.807, 20.44, 0.00616, 0.44766, -0.89413, -0.00131, 405, 100,
 19:48:11.809,e8:da:bf:c6:3e:4f, 2015-01-01 01:06:09.380, -0.038, -0.187, -0.867, 1.526, 0.671, -118.286, , , , , , , 179.665, -0.725, -114.186, -78.300, 13.100, -69.807, 20.44, 0.00702, 0.54004, -0.84155, -0.00095, 405, 100,
 19:48:11.809,e8:da:bf:c6:3e:4f, 2015-01-01 01:06:09.380, -0.056, -0.17, -0.956, 1.343, 0.549, -118.469, , , , , , , 179.67, -0.72, -113, -78.300, 13.100, -69.807, 20.44, 0.00702, 0.54004, -0.84155, -0.00095, 405, 100,
 19:48:11.810,e8:da:bf:c6:3e:4f, 2015-01-01 01:06:09.380, -0.145, -0.15, -1.082, -0.488, -1.648, -117.554, , , , , , , 179.659, -0.714, -111.824, -78.300, 13.100, -69.807, 20.44, 0.00702, 0.54004, -0.84155, -0.00095, 405, 100,
 19:48:11.826,e8:da:bf:c6:3e:4f, 2015-01-01 01:06:09.380, -1.057, -0.133, -1.019, -0.916, -6.531, -126.099, , , , , , , 179.643, -0.654, -110.61, -78.300, 13.100, -69.807, 20.44, 0.00702, 0.54004, -0.84155, -0.00095, 405, 100,
 19:48:11.826,e8:da:bf:c6:3e:4f, 2015-01-01 01:06:09.380, -2.467, -0.149, -0.984, 1.587, -6.409, -113.77, , , , , , , 179.637, -0.582, -109.38, -78.300, 13.100, -69.807, 20.44, 0.00702, 0.54004, -0.84155, -0.00095, 405, 100,
 19:48:11.826,e8:da:bf:c6:3e:4f, 2015-01-01 01:06:09.380, -3.511, -0.155, -1.04, -0.366, -6.592, -65.613, , , , , , , 179.637, -0.505, -108.506, -78.300, 13.100, -69.807, 20.44, 0.00702, 0.54004, -0.84155, -0.00095, 405, 100,
 19:48:11.826,e8:da:bf:c6:3e:4f, 2015-01-01 01:06:09.380, -4.027, -0.154, -1.006, 0.61, -1.709, -16.052, , , , , , , 179.637, -0.461, -108.105, -78.300, 13.100, -69.807, 20.44, 0.00702, 0.54004, -0.84155, -0.00095, 405, 100,
 19:48:11.826,e8:da:bf:c6:3e:4f, 2015-01-01 01:06:09.380, -3.502, -0.178, -0.857, 0, 4.639, 51.575, , , , , , , 179.637, -0.478, -108.325, -78.300, 13.100, -69.807, 20.44, 0.00702, 0.54004, -0.84155, -0.00095, 405, 100,
 19:48:11.827,e8:da:bf:c6:3e:4f, 2015-01-01 01:06:09.380, -2.308, -0.197, -0.818, 0.549, 8.911, 97.656, , , , , , , 179.648, -0.56, -109.111, -78.300, 13.100, -69.807, 20.44, 0.00702, 0.54004, -0.84155, -0.00095, 405, 100,
 19:48:11.827,e8:da:bf:c6:3e:4f, 2015-01-01 01:06:09.380, -0.828, -0.225, -0.904, -2.38, 7.324, 138.184, , , , , , , 179.648, -0.659, -110.319, -78.300, 13.100, -69.807, 20.44, 0.00702, 0.54004, -0.84155, -0.00095, 405, 100,
 19:48:11.827,e8:da:bf:c6:3e:4f, 2015-01-01 01:06:09.380, 0.041, -0.199, -0.939, 0.977, 5.066, 142.273, , , , , , , 179.648, -0.742, -111.742, -78.300, 13.100, -69.807, 20.44, 0.00702, 0.54004, -0.84155, -0.00095, 405, 100,
 19:48:11.828,e8:da:bf:c6:3e:4f, 2015-01-01 01:06:09.380, 0.553, -0.183, -1.086, 0.244, 3.235, 141.541, , , , , , , 179.676, -0.78, -113.154, -78.300, 13.100, -69.807, 20.44, 0.00702, 0.54004, -0.84155, -0.00095, 405, 100,
 19:48:11.828,e8:da:bf:c6:3e:4f, 2015-01-01 01:06:09.380, 1.746, -0.169, -1.276, -1.648, -2.258, 145.569, , , , , , , 179.676, -0.813, -114.615, -78.300, 13.100, -69.807, 20.44, 0.00702, 0.54004, -0.84155, -0.00095, 405, 100,
 19:48:11.828,e8:da:bf:c6:3e:4f, 2015-01-01 01:06:09.380, 2.062, -0.103, -1.161, -4.089, -2.441, 98.022, , , , , , , 179.665, -0.775, -115.84, -78.300, 13.100, -69.807, 20.44, 0.00702, 0.54004, -0.84155, -0.00095, 405, 100,
 19:48:11.829,e8:da:bf:c6:3e:4f, 2015-01-01 01:06:09.380, 1.846, -0.065, -0.773, -1.587, -2.38, 67.627, , , , , , , 179.637, -0.769, -116.631, -78.300, 13.100, -69.807, 20.44, 0.00702, 0.54004, -0.84155, -0.00095, 405, 100,
 19:48:11.829,e8:da:bf:c6:3e:4f, 2015-01-01 01:06:09.380, 1.086, -0.021, -0.606, 3.784, -6.531, 37.964, , , , , , , 179.659, -0.72, -117.153, -78.300, 13.100, -69.807, 20.44, 0.00702, 0.54004, -0.84155, -0.00095, 405, 100,
 19:48:11.829,e8:da:bf:c6:3e:4f, 2015-01-01 01:06:09.380, 0.207, 0.015, -0.825, 3.601, 1.587, 20.935, , , , , , , 179.703, -0.714, -117.422, -78.300, 13.100, -69.807, 20.44, 0.00702, 0.54004, -0.84155, -0.00095, 405, 100,
 19:48:11.829,e8:da:bf:c6:3e:4f, 2015-01-01 01:06:09.380, -0.272, 0.032, -1.189, 0.244, -0.488, 24.048, , , , , , , 179.725, -0.725, -117.636, -78.300, 13.100, -69.807, 20.44, 0.00702, 0.54004, -0.84155, -0.00095, 405, 100,
 19:48:11.830,e8:da:bf:c6:3e:4f, 2015-01-01 01:06:09.380, -1.396, 0.03, -1.299, -3.784, -10.498, 18.982, , , , , , , 179.703, -0.654, -117.872, -78.300, 13.100, -69.807, 20.44, 0.00702, 0.54004, -0.84155, -0.00095, 405, 100,
 19:48:11.925,e8:da:bf:c6:3e:4f, 2015-01-01 01:06:09.740, -2.5, -0.061, -1.125, -1.404, -4.822, 43.762, , , , , , , 179.681, -0.588, -118.136, -78.300, 13.100, -69.807, 20.44, 0.00702, 0.54004, -0.84155, -0.00095, 405, 100,
 19:48:11.925,e8:da:bf:c6:3e:4f, 2015-01-01 01:06:09.740, -2.926, -0.181, -0.866, -2.014, -3.174, 95.093, , , , , , , 179.665, -0.549, -118.889, -78.300, 13.100, -69.807, 20.44, 0.00702, 0.54004, -0.84155, -0.00095, 405, 100,
 19:48:11.925,e8:da:bf:c6:3e:4f, 2015-01-01 01:06:09.740, -2.569, -0.289, -0.721, 2.441, 4.883, 135.864, , , , , , , 179.676, -0.566, -120.037, -78.300, 13.100, -69.807, 20.44, 0.00702, 0.54004, -0.84155, -0.00095, 405, 100,
 19:48:11.925,e8:da:bf:c6:3e:4f, 2015-01-01 01:06:09.740, -1.271, -0.378, -0.798, -0.854, 5.249, 183.35, , , , , , , 179.703, -0.648, -121.696, -78.300, 13.100, -69.807, 20.44, 0.00702, 0.54004, -0.84155, -0.00095, 405, 100,
 19:48:11.948,e8:da:bf:c6:3e:4f, 2015-01-01 01:06:09.740, -0.432, -0.395, -0.9, 1.953, 6.348, 186.035, , , , , , , 179.72, -0.709, -123.558, -78.300, 13.100, -69.807, 20.44, 0.00702, 0.54004, -0.84155, -0.00095, 405, 100,
 19:48:11.948,e8:da:bf:c6:3e:4f, 2015-01-01 01:06:09.740, 0.056, -0.4, -1.082, 0.488, 2.136, 195.007, , , , , , , 179.758, -0.78, -125.469, -78.300, 13.100, -69.807, 20.44, 0.00702, 0.54004, -0.84155, -0.00095, 405, 100,
 19:48:11.948,e8:da:bf:c6:3e:4f, 2015-01-01 01:06:09.740, 0.281, -0.417, -1.206, -2.38, -0.244, 195.557, , , , , , , 179.764, -0.786, -127.43, -78.300, 13.100, -69.807, 20.44, 0.00702, 0.54004, -0.84155, -0.00095, 405, 100,
 19:48:11.949,e8:da:bf:c6:3e:4f, 2015-01-01 01:06:09.740, 0.431, -0.439, -1.07, -2.441, 0.671, 189.331, , , , , , , 179.758, -0.813, -129.353, -78.300, 13.100, -69.807, 20.44, 0.00702, 0.54004, -0.84155, -0.00095, 405, 100,
 19:48:11.949,e8:da:bf:c6:3e:4f, 2015-01-01 01:06:09.740, 0.638, -0.432, -0.909, -0.549, -1.465, 182.861, , , , , , , 179.764, -0.818, -131.221, -78.300, 13.100, -69.807, 20.44, 0.00702, 0.54004, -0.84155, -0.00095, 405, 100,
 19:48:11.949,e8:da:bf:c6:3e:4f, 2015-01-01 01:06:09.740, 0.607, -0.373, -0.899, 0.122, -1.77, 168.762, , , , , , , 179.786, -0.813, -132.979, -78.300, 13.100, -69.807, 20.44, 0.00702, 0.54004, -0.84155, -0.00095, 405, 100,
 19:48:11.949,e8:da:bf:c6:3e:4f, 2015-01-01 01:06:09.740, 0.395, -0.311, -0.96, -0.305, -1.587, 158.386, , , , , , , 179.802, -0.802, -134.599, -78.300, 13.100, -69.807, 20.44, 0.00702, 0.54004, -0.84155, -0.00095, 405, 100,
 19:48:11.949,e8:da:bf:c6:3e:4f, 2015-01-01 01:06:09.740, 0.205, -0.285, -1.009, -0.854, -2.93, 154.846, , , , , , , 179.808, -0.791, -136.17, -78.300, 13.100, -69.807, 20.44, 0.00702, 0.54004, -0.84155, -0.00095, 405, 100,
 19:48:12.073,e8:da:bf:c6:3e:4f, 2015-01-01 01:06:09.740, 0.024, -0.289, -0.983, -0.854, -1.465, 150.635, , , , , , , 179.819, -0.775, -137.692, -78.300, 13.100, -69.807, 20.44, 0.00702, 0.54004, -0.84155, -0.00095, 405, 100,
 19:48:12.073,e8:da:bf:c6:3e:4f, 2015-01-01 01:06:09.740, -0.025, -0.31, -0.951, 0.122, -1.465, 152.954, , , , , , , 179.83, -0.769, -139.208, -78.300, 13.100, -69.807, 20.44, 0.00702, 0.54004, -0.84155, -0.00095, 405, 100,
 19:48:12.073,e8:da:bf:c6:3e:4f, 2015-01-01 01:06:09.740, 0.02, -0.312, -1.005, -0.366, -1.953, 155.457, , , , , , , 179.846, -0.758, -140.762, -78.300, 13.100, -69.807, 20.44, 0.00702, 0.54004, -0.84155, -0.00095, 405, 100,
 19:48:12.074,e8:da:bf:c6:3e:4f, 2015-01-01 01:06:09.740, -0.084, -0.297, -1.04, -0.854, -4.089, 149.292, , , , , , , 179.852, -0.731, -142.289, -78.300, 13.100, -69.807, 20.44, 0.00702, 0.54004, -0.84155, -0.00095, 405, 100,
 19:48:12.280,e8:da:bf:c6:3e:4f, 2015-01-01 01:06:09.740, -0.599, -0.286, -1.027, -1.892, -1.587, 143.86, , , , , , , 179.852, -0.703, -143.74, -78.300, 13.100, -69.807, 20.44, 0.00702, 0.54004, -0.84155, -0.00095, 405, 100,
 19:48:12.315,e8:da:bf:c6:3e:4f, 2015-01-01 01:06:10.125, -0.562, -0.335, -0.933, -0.549, -0.366, 168.335, , , , , , , 179.852, -0.709, -145.3, -78.300, 13.100, -69.807, 20.44, 0.0032, 0.15656, -0.98761, -0.00186, 405, 100,
 19:48:12.315,e8:da:bf:c6:3e:4f, 2015-01-01 01:06:10.125, -0.557, -0.367, -0.872, 0.427, -2.808, 174.377, , , , , , , 179.868, -0.692, -147.052, -78.300, 13.100, -69.807, 20.44, 0.0032, 0.15656, -0.98761, -0.00186, 405, 100,
 19:48:12.316,e8:da:bf:c6:3e:4f, 2015-01-01 01:06:10.125, -0.441, -0.411, -0.951, 0.671, 0.61, 180.786, , , , , , , 179.89, -0.692, -148.804, -78.300, 13.100, -69.807, 20.44, 0.0032, 0.15656, -0.98761, -0.00186, 405, 100,
 19:48:12.316,e8:da:bf:c6:3e:4f, 2015-01-01 01:06:10.125, -0.163, -0.452, -1.054, -0.61, 0.854, 193.115, , , , , , , 179.912, -0.709, -150.705, -78.300, 13.100, -69.807, 20.44, 0.0032, 0.15656, -0.98761, -0.00186, 405, 100,
 19:48:12.316,e8:da:bf:c6:3e:4f, 2015-01-01 01:06:10.125, -0.097, -0.462, -1.059, -1.282, 1.404, 188.354, , , , , , , 179.918, -0.731, -152.606, -78.300, 13.100, -69.807, 20.44, 0.0032, 0.15656, -0.98761, -0.00186, 405, 100,
 19:48:12.316,e8:da:bf:c6:3e:4f, 2015-01-01 01:06:10.125, 0.019, -0.464, -1.01, -1.221, 0.671, 194.58, , , , , , , 179.923, -0.747, -154.523, -78.300, 13.100, -69.807, 20.44, 0.0032, 0.15656, -0.98761, -0.00186, 405, 100,
 19:48:12.316,e8:da:bf:c6:3e:4f, 2015-01-01 01:06:10.125, 0.105, -0.45, -0.96, -1.099, -0.977, 195.312, , , , , , , 179.929, -0.753, -156.484, -78.300, 13.100, -69.807, 20.44, 0.0032, 0.15656, -0.98761, -0.00186, 405, 100,
 19:48:12.341,e8:da:bf:c6:3e:4f, 2015-01-01 01:06:10.125, 0.218, -0.444, -0.922, -0.549, 2.502, 195.618, , , , , , , 179.94, -0.753, -158.434, -78.300, 13.100, -69.807, 20.44, 0.0032, 0.15656, -0.98761, -0.00186, 405, 100,
 19:48:12.341,e8:da:bf:c6:3e:4f, 2015-01-01 01:06:10.125, 1.667, -0.447, -0.894, 1.465, -0.977, 210.022, , , , , , , 179.962, -0.791, -160.466, -78.300, 13.100, -69.807, 20.44, 0.0032, 0.15656, -0.98761, -0.00186, 405, 100,
 19:48:12.341,e8:da:bf:c6:3e:4f, 2015-01-01 01:06:10.125, 2.99, -0.352, -0.972, 4.761, -1.16, 175.72, , , , , , , -179.973, -0.753, -162.449, -78.300, 13.100, -69.807, 20.44, 0.0032, 0.15656, -0.98761, -0.00186, 405, 100,
 19:48:12.341,e8:da:bf:c6:3e:4f, 2015-01-01 01:06:10.125, 3.884, -0.204, -1.111, -0.61, 5.249, 121.277, , , , , , , -179.94, -0.797, -163.878, -78.300, 13.100, -69.807, 20.44, 0.0032, 0.15656, -0.98761, -0.00186, 405, 100,
 19:48:12.342,e8:da:bf:c6:3e:4f, 2015-01-01 01:06:10.125, 4.001, -0.075, -1.118, -0.671, -4.211, 66.162, , , , , , , -179.94, -0.797, -164.828, -78.300, 13.100, -69.807, 20.44, 0.0032, 0.15656, -0.98761, -0.00186, 405, 100,
 19:48:12.342,e8:da:bf:c6:3e:4f, 2015-01-01 01:06:10.125, 3.176, -0.01, -0.957, -1.465, -5.737, 0, , , , , , , -179.951, -0.742, -165.092, -78.300, 13.100, -69.807, 20.44, 0.0032, 0.15656, -0.98761, -0.00186, 405, 100,
 19:48:12.342,e8:da:bf:c6:3e:4f, 2015-01-01 01:06:10.125, 1.835, 0.002, -0.826, 0.671, -9.155, -38.025, , , , , , , -179.951, -0.665, -164.894, -78.300, 13.100, -69.807, 20.44, 0.0032, 0.15656, -0.98761, -0.00186, 405, 100,
 19:48:12.342,e8:da:bf:c6:3e:4f, 2015-01-01 01:06:10.125, 0.516, 0.01, -0.802, 0.488, 1.709, -71.228, , , , , , , -179.951, -0.637, -164.29, -78.300, 13.100, -69.807, 20.44, 0.0032, 0.15656, -0.98761, -0.00186, 405, 100,
 19:48:12.343,e8:da:bf:c6:3e:4f, 2015-01-01 01:06:10.125, -0.25, 0.031, -1.047, -0.122, -1.221, -73.792, , , , , , , -179.951, -0.632, -163.559, -78.300, 13.100, -69.807, 20.44, 0.0032, 0.15656, -0.98761, -0.00186, 405, 100,
 19:48:12.343,e8:da:bf:c6:3e:4f, 2015-01-01 01:06:10.125, -1.05, 0, -1.244, -3.357, -6.775, -72.144, , , , , , , -179.978, -0.588, -162.828, -78.300, 13.100, -69.807, 20.44, 0.0032, 0.15656, -0.98761, -0.00186, 405, 100,
 19:48:12.343,e8:da:bf:c6:3e:4f, 2015-01-01 01:06:10.125, -1.852, -0.068, -1.217, -6.348, -3.357, -53.162, , , , , , , 179.967, -0.533, -162.186, -78.300, 13.100, -69.807, 20.44, 0.0032, 0.15656, -0.98761, -0.00186, 405, 100,
 19:48:12.343,e8:da:bf:c6:3e:4f, 2015-01-01 01:06:10.125, -2.117, -0.119, -0.941, -3.601, -0.305, -15.686, , , , , , , 179.912, -0.516, -161.867, -78.300, 13.100, -69.807, 20.44, 0.0032, 0.15656, -0.98761, -0.00186, 405, 100,
 19:48:12.343,e8:da:bf:c6:3e:4f, 2015-01-01 01:06:10.125, -1.785, -0.097, -0.656, 1.587, 4.089, 16.968, , , , , , , 179.907, -0.538, -161.889, -78.300, 13.100, -69.807, 20.44, 0.0032, 0.15656, -0.98761, -0.00186, 405, 100,
 19:48:12.344,e8:da:bf:c6:3e:4f, 2015-01-01 01:06:10.125, -0.87, -0.036, -0.649, 4.761, 7.446, 45.471, , , , , , , 179.945, -0.604, -162.23, -78.300, 13.100, -69.807, 20.44, 0.0032, 0.15656, -0.98761, -0.00186, 405, 100,
 19:48:12.344,e8:da:bf:c6:3e:4f, 2015-01-01 01:06:10.125, -0.206, 0.018, -0.942, 3.418, 8.484, 55.359, , , , , , , 179.995, -0.687, -162.751, -78.300, 13.100, -69.807, 20.44, 0.0032, 0.15656, -0.98761, -0.00186, 405, 100,
 19:48:12.344,e8:da:bf:c6:3e:4f, 2015-01-01 01:06:10.125, 0.107, -0.005, -1.26, -0.366, -0.916, 56.58, , , , , , , -179.989, -0.714, -163.317, -78.300, 13.100, -69.807, 20.44, 0.0032, 0.15656, -0.98761, -0.00186, 405, 100,
 19:48:12.344,e8:da:bf:c6:3e:4f, 2015-01-01 01:06:10.125, 0.85, -0.059, -1.19, -2.502, 6.592, 64.697, , , , , , , -180, -0.747, -163.911, -78.300, 13.100, -69.807, 20.44, 0.0032, 0.15656, -0.98761, -0.00186, 405, 100,
 19:48:12.345,e8:da:bf:c6:3e:4f, 2015-01-01 01:06:10.125, 2.379, -0.07, -0.939, 4.395, -6.409, 62.744, , , , , , , -179.989, -0.747, -164.614, -78.300, 13.100, -69.807, 20.44, 0.0032, 0.15656, -0.98761, -0.00186, 405, 100,
 19:48:12.345,e8:da:bf:c6:3e:4f, 2015-01-01 01:06:10.125, 2.419, 0.029, -0.9, 1.282, 0.732, -7.935, , , , , , , -179.951, -0.714, -164.85, -78.300, 13.100, -69.807, 20.44, 0.0032, 0.15656, -0.98761, -0.00186, 405, 100,
 19:48:12.345,e8:da:bf:c6:3e:4f, 2015-01-01 01:06:10.125, 2.042, 0.059, -1.059, -1.16, -4.944, -32.959, , , , , , , -179.956, -0.709, -164.619, -78.300, 13.100, -69.807, 20.44, 0.0032, 0.15656, -0.98761, -0.00186, 405, 100,
 19:48:12.345,e8:da:bf:c6:3e:4f, 2015-01-01 01:06:10.125, 0.919, 0.034, -1.017, -2.991, -2.808, -71.35, , , , , , , -179.984, -0.643, -164.075, -78.300, 13.100, -69.807, 20.44, 0.0032, 0.15656, -0.98761, -0.00186, 405, 100,
 19:48:12.345,e8:da:bf:c6:3e:4f, 2015-01-01 01:06:10.125, -0.019, -0.034, -0.823, 0, -0.488, -78.857, , , , , , , 179.989, -0.648, -163.295, -78.300, 13.100, -69.807, 20.44, 0.0032, 0.15656, -0.98761, -0.00186, 405, 100,
 19:48:12.346,e8:da:bf:c6:3e:4f, 2015-01-01 01:06:10.125, -0.402, -0.07, -0.863, 1.831, -0.549, -72.998, , , , , , , -180, -0.648, -162.537, -78.300, 13.100, -69.807, 20.44, 0.0032, 0.15656, -0.98761, -0.00186, 405, 100,
 19:48:12.346,e8:da:bf:c6:3e:4f, 2015-01-01 01:06:10.125, -1.168, -0.052, -1.134, -0.122, -8.789, -71.96, , , , , , , -179.995, -0.582, -161.823, -78.300, 13.100, -69.807, 20.44, 0.0032, 0.15656, -0.98761, -0.00186, 405, 100,
 19:48:12.362,e8:da:bf:c6:3e:4f, 2015-01-01 01:06:10.125, -2.091, -0.046, -1.365, -5.188, -3.113, -54.993, , , , , , , 179.967, -0.533, -161.164, -78.300, 13.100, -69.807, 20.44, 0.0032, 0.15656, -0.98761, -0.00186, 405, 100,
 19:48:12.362,e8:da:bf:c6:3e:4f, 2015-01-01 01:06:10.125, -2.343, -0.081, -1.093, -5.798, -1.221, -11.108, , , , , , , 179.907, -0.505, -160.862, -78.300, 13.100, -69.807, 20.44, 0.0032, 0.15656, -0.98761, -0.00186, 405, 100,
 19:48:12.362,e8:da:bf:c6:3e:4f, 2015-01-01 01:06:10.125, -1.916, -0.098, -0.583, 0.671, 4.822, 23.315, , , , , , , 179.879, -0.527, -160.939, -78.300, 13.100, -69.807, 20.44, 0.0032, 0.15656, -0.98761, -0.00186, 405, 100,
 19:48:12.362,e8:da:bf:c6:3e:4f, 2015-01-01 01:06:10.125, -0.895, -0.087, -0.425, 6.714, 8.057, 56.213, , , , , , , 179.929, -0.604, -161.373, -78.300, 13.100, -69.807, 20.44, 0.0032, 0.15656, -0.98761, -0.00186, 405, 100,
 19:48:12.441,e8:da:bf:c6:3e:4f, 2015-01-01 01:06:10.125, -0.164, -0.019, -0.876, 5.92, 8.85, 61.401, , , , , , , -180, -0.692, -161.977, -78.300, 13.100, -69.807, 20.44, 0.0032, 0.15656, -0.98761, -0.00186, 405, 100,
 19:48:12.441,e8:da:bf:c6:3e:4f, 2015-01-01 01:06:10.125, 0.133, 0.008, -1.464, -1.282, -0.61, 62.012, , , , , , , -179.967, -0.72, -162.598, -78.300, 13.100, -69.807, 20.44, 0.0032, 0.15656, -0.98761, -0.00186, 405, 100,
 19:48:12.442,e8:da:bf:c6:3e:4f, 2015-01-01 01:06:10.125, 1.333, -0.032, -1.336, -5.127, 4.211, 75.317, , , , , , , 179.989, -0.764, -163.268, -78.300, 13.100, -69.807, 20.44, 0.0032, 0.15656, -0.98761, -0.00186, 405, 100,
 19:48:12.443,e8:da:bf:c6:3e:4f, 2015-01-01 01:06:10.125, 2.702, -0.043, -0.832, 4.15, -3.967, 54.81, , , , , , , 179.995, -0.742, -163.998, -78.300, 13.100, -69.807, 20.44, 0.0032, 0.15656, -0.98761, -0.00186, 405, 100,
 19:48:12.443,e8:da:bf:c6:3e:4f, 2015-01-01 01:06:10.125, 3.03, 0.021, -0.69, 3.174, 4.272, -13.062, , , , , , , -179.962, -0.753, -164.125, -78.300, 13.100, -69.807, 20.44, 0.0032, 0.15656, -0.98761, -0.00186, 405, 100,
 19:48:12.444,e8:da:bf:c6:3e:4f, 2015-01-01 01:06:10.125, 3.01, 0.049, -1.028, 2.319, -6.653, -41.931, , , , , , , -179.934, -0.742, -163.872, -78.300, 13.100, -69.807, 20.44, 0.0032, 0.15656, -0.98761, -0.00186, 405, 100,
 19:48:12.445,e8:da:bf:c6:3e:4f, 2015-01-01 01:06:10.125, 1.963, 0.021, -1.22, -5.615, -2.014, -101.624, , , , , , , -179.956, -0.687, -163.092, -78.300, 13.100, -69.807, 20.44, 0.0032, 0.15656, -0.98761, -0.00186, 405, 100,
 19:48:12.445,e8:da:bf:c6:3e:4f, 2015-01-01 01:06:10.125, 1.232, -0.108, -0.96, -2.686, -4.333, -110.962, , , , , , , 179.984, -0.654, -162.026, -78.300, 13.100, -69.807, 20.44, 0.0032, 0.15656, -0.98761, -0.00186, 405, 100,
 19:48:12.549,e8:da:bf:c6:3e:4f, 2015-01-01 01:06:10.125, 0.363, -0.184, -0.595, 3.845, 0.488, -140.076, , , , , , , 179.984, -0.637, -160.757, -78.300, 13.100, -69.807, 20.44, 0.0032, 0.15656, -0.98761, -0.00186, 405, 100,
 19:48:12.778,e8:da:bf:c6:3e:4f, 2015-01-01 01:06:10.125, -0.395, -0.186, -0.849, 4.272, 1.587, -145.874, , , , , , , -179.978, -0.648, -159.302, -78.300, 13.100, -69.807, 20.44, 0.00516, 0.25974, -0.96561, -0.00119, 405, 100,
 19:48:12.794,e8:da:bf:c6:3e:4f, 2015-01-01 01:06:10.485, -0.357, -0.176, -1.39, -2.686, 0.305, -123.718, , , , , , , -179.984, -0.665, -157.945, -78.300, 13.100, -69.807, 20.44, 0.00516, 0.25974, -0.96561, -0.00119, 405, 100,
 19:48:12.794,e8:da:bf:c6:3e:4f, 2015-01-01 01:06:10.485, -0.452, -0.174, -1.344, -5.737, -5.249, -121.399, , , , , , , 179.962, -0.626, -156.753, -78.300, 13.100, -69.807, 20.44, 0.00516, 0.25974, -0.96561, -0.00119, 405, 100,
 19:48:12.819,e8:da:bf:c6:3e:4f, 2015-01-01 01:06:10.485, -0.817, -0.2, -0.869, -4.15, 2.136, -121.033, , , , , , , 179.896, -0.604, -155.511, -78.300, 13.100, -69.807, 20.44, 0.00516, 0.25974, -0.96561, -0.00119, 405, 100,
 19:48:12.820,e8:da:bf:c6:3e:4f, 2015-01-01 01:06:10.485, -0.528, -0.209, -0.498, 4.517, 3.357, -91.98, , , , , , , 179.896, -0.637, -154.473, -78.300, 13.100, -69.807, 20.44, 0.00516, 0.25974, -0.96561, -0.00119, 405, 100,
 19:48:12.820,e8:da:bf:c6:3e:4f, 2015-01-01 01:06:10.485, -0.385, -0.117, -0.724, 5.737, 3.357, -94.238, , , , , , , 179.951, -0.665, -153.556, -78.300, 13.100, -69.807, 20.44, 0.00516, 0.25974, -0.96561, -0.00119, 405, 100,
 19:48:12.820,e8:da:bf:c6:3e:4f, 2015-01-01 01:06:10.485, -0.132, -0.074, -1.232, 0.732, 3.357, -85.144, , , , , , , 179.973, -0.703, -152.65, -78.300, 13.100, -69.807, 20.44, 0.00516, 0.25974, -0.96561, -0.00119, 405, 100,
 19:48:12.820,e8:da:bf:c6:3e:4f, 2015-01-01 01:06:10.485, 0.008, -0.083, -1.385, -3.906, 0.732, -82.581, , , , , , , 179.945, -0.72, -151.831, -78.300, 13.100, -69.807, 20.44, 0.00516, 0.25974, -0.96561, -0.00119, 405, 100,
 19:48:12.820,e8:da:bf:c6:3e:4f, 2015-01-01 01:06:10.485, 0.444, -0.128, -1.021, -2.075, 1.77, -79.529, , , , , , , 179.901, -0.742, -151.002, -78.300, 13.100, -69.807, 20.44, 0.00516, 0.25974, -0.96561, -0.00119, 405, 100,
 19:48:12.820,e8:da:bf:c6:3e:4f, 2015-01-01 01:06:10.485, 1.803, -0.13, -0.771, 3.479, -3.052, -69.58, , , , , , , 179.896, -0.753, -150.298, -78.300, 13.100, -69.807, 20.44, 0.00516, 0.25974, -0.96561, -0.00119, 405, 100,
 19:48:12.821,e8:da:bf:c6:3e:4f, 2015-01-01 01:06:10.485, 1.731, -0.065, -0.894, 2.014, -0.671, -130.127, , , , , , , 179.929, -0.709, -149.299, -78.300, 13.100, -69.807, 20.44, 0.00516, 0.25974, -0.96561, -0.00119, 405, 100,
 19:48:12.821,e8:da:bf:c6:3e:4f, 2015-01-01 01:06:10.485, 1.486, -0.132, -1.097, -2.502, 0.916, -146.912, , , , , , , 179.901, -0.736, -147.854, -78.300, 13.100, -69.807, 20.44, 0.00516, 0.25974, -0.96561, -0.00119, 405, 100,
 19:48:12.821,e8:da:bf:c6:3e:4f, 2015-01-01 01:06:10.485, 0.959, -0.24, -1.005, -1.16, -3.54, -167.847, , , , , , , 179.868, -0.698, -146.305, -78.300, 13.100, -69.807, 20.44, 0.00516, 0.25974, -0.96561, -0.00119, 405, 100,
 19:48:12.821,e8:da:bf:c6:3e:4f, 2015-01-01 01:06:10.485, 0.25, -0.378, -0.759, 2.197, 4.272, -185.364, , , , , , , 179.857, -0.703, -144.503, -78.300, 13.100, -69.807, 20.44, 0.00516, 0.25974, -0.96561, -0.00119, 405, 100,
 19:48:12.821,e8:da:bf:c6:3e:4f, 2015-01-01 01:06:10.485, -0.053, -0.432, -0.796, 5.249, 0.549, -178.955, , , , , , , 179.885, -0.725, -142.685, -78.300, 13.100, -69.807, 20.44, 0.00516, 0.25974, -0.96561, -0.00119, 405, 100,
 19:48:12.821,e8:da:bf:c6:3e:4f, 2015-01-01 01:06:10.485, -0.114, -0.392, -1.183, 1.282, 0.671, -177.673, , , , , , , 179.901, -0.731, -140.905, -78.300, 13.100, -69.807, 20.44, 0.00516, 0.25974, -0.96561, -0.00119, 405, 100,
 19:48:12.822,e8:da:bf:c6:3e:4f, 2015-01-01 01:06:10.485, -0.096, -0.348, -1.38, -4.15, 0.732, -176.331, , , , , , , 179.863, -0.725, -139.136, -78.300, 13.100, -69.807, 20.44, 0.00516, 0.25974, -0.96561, -0.00119, 405, 100,
 19:48:12.822,e8:da:bf:c6:3e:4f, 2015-01-01 01:06:10.485, -0.083, -0.359, -1.015, -3.418, 1.465, -174.011, , , , , , , 179.802, -0.736, -137.39, -78.300, 13.100, -69.807, 20.44, 0.00516, 0.25974, -0.96561, -0.00119, 405, 100,
 19:48:12.822,e8:da:bf:c6:3e:4f, 2015-01-01 01:06:10.485, -0.047, -0.391, -0.597, 2.686, 1.404, -171.265, , , , , , , 179.786, -0.736, -135.665, -78.300, 13.100, -69.807, 20.44, 0.00516, 0.25974, -0.96561, -0.00119, 405, 100,
 19:48:12.822,e8:da:bf:c6:3e:4f, 2015-01-01 01:06:10.485, -0.029, -0.383, -0.665, 6.042, 0.732, -170.593, , , , , , , 179.819, -0.747, -133.962, -78.300, 13.100, -69.807, 20.44, 0.00516, 0.25974, -0.96561, -0.00119, 405, 100,
 19:48:12.822,e8:da:bf:c6:3e:4f, 2015-01-01 01:06:10.485, -0.042, -0.348, -1.16, 1.587, 0.793, -171.082, , , , , , , 179.846, -0.742, -132.253, -78.300, 13.100, -69.807, 20.44, 0.00516, 0.25974, -0.96561, -0.00119, 405, 100,
 19:48:12.822,e8:da:bf:c6:3e:4f, 2015-01-01 01:06:10.485, -0.017, -0.341, -1.38, -3.784, 2.136, -168.823, , , , , , , 179.813, -0.753, -130.551, -78.300, 13.100, -69.807, 20.44, 0.00516, 0.25974, -0.96561, -0.00119, 405, 100,
 19:48:12.822,e8:da:bf:c6:3e:4f, 2015-01-01 01:06:10.485, 0.14, -0.37, -1.071, -2.502, 2.93, -164.429, , , , , , , 179.758, -0.769, -128.886, -78.300, 13.100, -69.807, 20.44, 0.00516, 0.25974, -0.96561, -0.00119, 405, 100,
 19:48:12.823,e8:da:bf:c6:3e:4f, 2015-01-01 01:06:10.485, 0.412, -0.382, -0.747, 1.526, 1.282, -163.879, , , , , , , 179.742, -0.78, -127.255, -78.300, 13.100, -69.807, 20.44, 0.00516, 0.25974, -0.96561, -0.00119, 405, 100,
 19:48:12.823,e8:da:bf:c6:3e:4f, 2015-01-01 01:06:10.485, 0.389, -0.362, -0.759, 3.54, -0.061, -177.185, , , , , , , 179.753, -0.775, -125.557, -78.300, 13.100, -69.807, 20.44, 0.00516, 0.25974, -0.96561, -0.00119, 405, 100,
 19:48:12.823,e8:da:bf:c6:3e:4f, 2015-01-01 01:06:10.485, 0.32, -0.355, -1.054, 1.099, 0.671, -183.411, , , , , , , 179.758, -0.775, -123.734, -78.300, 13.100, -69.807, 20.44, 0.00516, 0.25974, -0.96561, -0.00119, 405, 100,
 19:48:12.823,e8:da:bf:c6:3e:4f, 2015-01-01 01:06:10.485, 0.215, -0.378, -1.158, -1.465, 0.488, -186.829, , , , , , , 179.736, -0.764, -121.888, -78.300, 13.100, -69.807, 20.44, 0.00516, 0.25974, -0.96561, -0.00119, 405, 100,
 19:48:12.823,e8:da:bf:c6:3e:4f, 2015-01-01 01:06:10.485, 0.059, -0.436, -0.979, -0.244, 0.61, -192.261, , , , , , , 179.703, -0.764, -119.987, -78.300, 13.100, -69.807, 20.44, 0.00516, 0.25974, -0.96561, -0.00119, 405, 100,
 19:48:12.823,e8:da:bf:c6:3e:4f, 2015-01-01 01:06:10.485, -0.062, -0.481, -0.85, 2.319, 0.183, -191.956, , , , , , , 179.698, -0.753, -118.065, -78.300, 13.100, -69.807, 20.44, 0.00516, 0.25974, -0.96561, -0.00119, 405, 100,
 19:48:12.824,e8:da:bf:c6:3e:4f, 2015-01-01 01:06:10.485, -0.096, -0.471, -0.976, 1.77, 0.854, -189.209, , , , , , , 179.703, -0.753, -116.164, -78.300, 13.100, -69.807, 20.44, 0.00516, 0.25974, -0.96561, -0.00119, 405, 100,
 19:48:12.824,e8:da:bf:c6:3e:4f, 2015-01-01 01:06:10.485, -0.078, -0.424, -1.142, -0.854, 0.61, -186.462, , , , , , , 179.687, -0.742, -114.285, -78.300, 13.100, -69.807, 20.44, 0.00516, 0.25974, -0.96561, -0.00119, 405, 100,
 19:48:12.824,e8:da:bf:c6:3e:4f, 2015-01-01 01:06:10.485, -0.067, -0.392, -1.074, -1.77, 0.916, -185.059, , , , , , , 179.654, -0.742, -112.434, -78.300, 13.100, -69.807, 20.44, 0.00516, 0.25974, -0.96561, -0.00119, 405, 100,
 19:48:12.824,e8:da:bf:c6:3e:4f, 2015-01-01 01:06:10.485, -0.051, -0.398, -0.848, 0.427, 1.465, -183.105, , , , , , , 179.626, -0.736, -110.594, -78.300, 13.100, -69.807, 20.44, 0.00516, 0.25974, -0.96561, -0.00119, 405, 100,
 19:48:12.824,e8:da:bf:c6:3e:4f, 2015-01-01 01:06:10.485, -0.034, -0.423, -0.783, 3.54, 1.099, -181.946, , , , , , , 179.637, -0.742, -108.77, -78.300, 13.100, -69.807, 20.44, 0.00516, 0.25974, -0.96561, -0.00119, 405, 100,
 19:48:12.824,e8:da:bf:c6:3e:4f, 2015-01-01 01:06:10.485, -0.046, -0.427, -1.025, 1.892, 0.671, -182.19, , , , , , , 179.648, -0.731, -106.952, -78.300, 13.100, -69.807, 20.44, 0.00516, 0.25974, -0.96561, -0.00119, 405, 100,
 19:48:12.840,e8:da:bf:c6:3e:4f, 2015-01-01 01:06:10.485, -0.059, -0.417, -1.199, -1.099, 0.61, -181.335, , , , , , , 179.632, -0.731, -105.139, -78.300, 13.100, -69.807, 20.44, 0.00516, 0.25974, -0.96561, -0.00119, 405, 100,
 19:48:12.840,e8:da:bf:c6:3e:4f, 2015-01-01 01:06:10.485, -0.06, -0.403, -1.089, -1.465, 0.854, -179.871, , , , , , , 179.599, -0.72, -103.332, -78.300, 13.100, -69.807, 20.44, 0.00516, 0.25974, -0.96561, -0.00119, 405, 100,
 19:48:12.840,e8:da:bf:c6:3e:4f, 2015-01-01 01:06:10.485, -0.06, -0.394, -0.88, 0.366, 1.221, -178.406, , , , , , , 179.577, -0.72, -101.547, -78.300, 13.100, -69.807, 20.44, 0.00516, 0.25974, -0.96561, -0.00119, 405, 100,
 19:48:12.840,e8:da:bf:c6:3e:4f, 2015-01-01 01:06:10.485, -0.044, -0.381, -0.829, 2.014, -1.16, -178.711, , , , , , , 179.577, -0.703, -99.761, -78.300, 13.100, -69.807, 20.44, 0.00516, 0.25974, -0.96561, -0.00119, 405, 100,
 19:48:12.871,e8:da:bf:c6:3e:4f, 2015-01-01 01:06:10.485, -1.321, -0.337, -0.957, 1.343, -7.446, -196.35, , , , , , , 179.583, -0.637, -97.905, -78.300, 13.100, -69.807, 20.44, 0.00516, 0.25974, -0.96561, -0.00119, 405, 100,
 19:48:12.871,e8:da:bf:c6:3e:4f, 2015-01-01 01:06:10.485, -3.06, -0.356, -1.216, 2.197, -4.272, -178.772, , , , , , , 179.583, -0.566, -95.944, -78.300, 13.100, -69.807, 20.44, 0.00516, 0.25974, -0.96561, -0.00119, 405, 100,
 19:48:12.871,e8:da:bf:c6:3e:4f, 2015-01-01 01:06:10.485, -3.894, -0.33, -1.106, -4.578, -5.798, -105.713, , , , , , , 179.55, -0.5, -94.631, -78.300, 13.100, -69.807, 20.44, 0.00516, 0.25974, -0.96561, -0.00119, 405, 100,
 19:48:12.871,e8:da:bf:c6:3e:4f, 2015-01-01 01:06:10.485, -3.922, -0.289, -0.796, 3.784, 2.869, -55.237, , , , , , , 179.55, -0.478, -93.796, -78.300, 13.100, -69.807, 20.44, 0.00516, 0.25974, -0.96561, -0.00119, 405, 100,
 19:48:12.905,e8:da:bf:c6:3e:4f, 2015-01-01 01:06:10.485, -2.863, -0.208, -0.769, -2.38, 5.737, 15.32, , , , , , , 179.561, -0.533, -93.686, -78.300, 13.100, -69.807, 20.44, 0.00516, 0.25974, -0.96561, -0.00119, 405, 100,
 19:48:12.905,e8:da:bf:c6:3e:4f, 2015-01-01 01:06:10.485, -1.79, -0.115, -0.98, -0.549, 8.972, 40.649, , , , , , , 179.544, -0.61, -93.972, -78.300, 13.100, -69.807, 20.44, 0.00723, 0.67804, -0.73492, -0.00131, 405, 100,
 19:48:12.905,e8:da:bf:c6:3e:4f, 2015-01-01 01:06:10.485, -0.439, -0.064, -1.03, -3.479, 5.31, 77.271, , , , , , , 179.533, -0.698, -94.603, -78.300, 13.100, -69.807, 20.44, 0.00723, 0.67804, -0.73492, -0.00131, 405, 100,
 19:48:12.905,e8:da:bf:c6:3e:4f, 2015-01-01 01:06:10.485, 0.255, -0.009, -0.822, 1.77, 2.625, 73.669, , , , , , , 179.528, -0.747, -95.378, -78.300, 13.100, -69.807, 20.44, 0.00723, 0.67804, -0.73492, -0.00131, 405, 100,
 19:48:13.070,e8:da:bf:c6:3e:4f, 2015-01-01 01:06:10.485, 0.743, -0.011, -0.912, 3.418, 5.249, 68.604, , , , , , , 179.572, -0.786, -96.075, -78.300, 13.100, -69.807, 20.44, 0.00723, 0.67804, -0.73492, -0.00131, 406, 100,
 19:48:13.218,e8:da:bf:c6:3e:4f, 2015-01-01 01:06:10.485, 1.942, 0.004, -1.363, -0.732, -4.211, 68.298, , , , , , , 179.588, -0.818, -96.784, -78.300, 13.100, -69.807, 20.42, 0.00723, 0.67804, -0.73492, -0.00131, 406, 100,
 19:48:13.218,e8:da:bf:c6:3e:4f, 2015-01-01 01:06:10.990, 1.785, 0.055, -1.311, -7.019, -3.418, 11.353, , , , , , , 179.555, -0.758, -97.169, -78.300, 13.100, -69.807, 20.42, 0.00723, 0.67804, -0.73492, -0.00131, 406, 100,
 19:48:13.218,e8:da:bf:c6:3e:4f, 2015-01-01 01:06:10.990, 1.341, 0.033, -0.716, -2.136, -2.747, -7.996, , , , , , , 179.495, -0.747, -97.141, -78.300, 13.100, -69.807, 20.42, 0.00723, 0.67804, -0.73492, -0.00131, 406, 100,
 19:48:13.242,e8:da:bf:c6:3e:4f, 2015-01-01 01:06:10.990, 0.604, 0.023, -0.418, 6.287, -2.441, -29.297, , , , , , , 179.522, -0.703, -96.965, -78.300, 13.100, -69.807, 20.42, 0.00723, 0.67804, -0.73492, -0.00131, 406, 100,
 19:48:13.242,e8:da:bf:c6:3e:4f, 2015-01-01 01:06:10.990, -0.046, 0.032, -0.726, 6.592, 1.16, -40.833, , , , , , , 179.588, -0.709, -96.586, -78.300, 13.100, -69.807, 20.42, 0.00723, 0.67804, -0.73492, -0.00131, 406, 100,
 19:48:13.242,e8:da:bf:c6:3e:4f, 2015-01-01 01:06:10.990, -0.356, 0.033, -1.323, 0.61, -0.549, -33.325, , , , , , , 179.626, -0.703, -96.213, -78.300, 13.100, -69.807, 20.42, 0.00723, 0.67804, -0.73492, -0.00131, 406, 100,
 19:48:13.242,e8:da:bf:c6:3e:4f, 2015-01-01 01:06:10.990, -0.83, 0.021, -1.492, -5.798, -4.578, -28.625, , , , , , , 179.588, -0.67, -95.916, -78.300, 13.100, -69.807, 20.42, 0.00723, 0.67804, -0.73492, -0.00131, 406, 100,
 19:48:13.242,e8:da:bf:c6:3e:4f, 2015-01-01 01:06:10.990, -1.31, -0.04, -1.145, -5.859, -1.343, -16.113, , , , , , , 179.522, -0.643, -95.674, -78.300, 13.100, -69.807, 20.42, 0.00723, 0.67804, -0.73492, -0.00131, 406, 100,
 19:48:13.243,e8:da:bf:c6:3e:4f, 2015-01-01 01:06:10.990, -1.223, -0.094, -0.671, 0.488, 1.465, 15.198, , , , , , , 179.495, -0.643, -95.691, -78.300, 13.100, -69.807, 20.42, 0.00723, 0.67804, -0.73492, -0.00131, 406, 100,
 19:48:13.243,e8:da:bf:c6:3e:4f, 2015-01-01 01:06:10.990, -0.783, -0.075, -0.662, 3.784, 4.517, 31.982, , , , , , , 179.522, -0.681, -95.938, -78.300, 13.100, -69.807, 20.42, 0.00723, 0.67804, -0.73492, -0.00131, 406, 100,
 19:48:13.243,e8:da:bf:c6:3e:4f, 2015-01-01 01:06:10.990, -0.213, -0.012, -0.888, 3.174, 2.502, 44.189, , , , , , , 179.561, -0.72, -96.339, -78.300, 13.100, -69.807, 20.42, 0.00723, 0.67804, -0.73492, -0.00131, 406, 100,
 19:48:13.243,e8:da:bf:c6:3e:4f, 2015-01-01 01:06:10.990, 0.083, 0.049, -1.141, 0.122, 0.732, 43.396, , , , , , , 179.583, -0.742, -96.784, -78.300, 13.100, -69.807, 20.42, 0.00723, 0.67804, -0.73492, -0.00131, 406, 100,
 19:48:13.243,e8:da:bf:c6:3e:4f, 2015-01-01 01:06:10.990, 0.151, 0.044, -1.163, -2.075, 1.77, 42.542, , , , , , , 179.577, -0.753, -97.213, -78.300, 13.100, -69.807, 20.42, 0.00723, 0.67804, -0.73492, -0.00131, 406, 100,
 19:48:13.243,e8:da:bf:c6:3e:4f, 2015-01-01 01:06:10.990, 0.589, -0.013, -1.035, -1.343, 2.563, 48.401, , , , , , , 179.561, -0.78, -97.663, -78.300, 13.100, -69.807, 20.42, 0.00723, 0.67804, -0.73492, -0.00131, 406, 100,
 19:48:13.243,e8:da:bf:c6:3e:4f, 2015-01-01 01:06:10.990, 1.251, -0.039, -0.984, 0.122, -4.517, 40.466, , , , , , , 179.561, -0.775, -98.141, -78.300, 13.100, -69.807, 20.42, 0.00723, 0.67804, -0.73492, -0.00131, 406, 100,
 19:48:13.243,e8:da:bf:c6:3e:4f, 2015-01-01 01:06:10.990, 1.22, -0.009, -0.981, -0.916, -0.488, 4.395, , , , , , , 179.561, -0.753, -98.344, -78.300, 13.100, -69.807, 20.42, 0.00723, 0.67804, -0.73492, -0.00131, 406, 100,
 19:48:13.243,e8:da:bf:c6:3e:4f, 2015-01-01 01:06:10.990, 1.088, 0.042, -0.958, -0.793, -2.075, -8.179, , , , , , , 179.55, -0.742, -98.317, -78.300, 13.100, -69.807, 20.42, 0.00723, 0.67804, -0.73492, -0.00131, 406, 100,
 19:48:13.243,e8:da:bf:c6:3e:4f, 2015-01-01 01:06:10.990, 0.681, 0.077, -0.861, 0.366, -2.075, -28.076, , , , , , , 179.544, -0.714, -98.124, -78.300, 13.100, -69.807, 20.42, 0.00723, 0.67804, -0.73492, -0.00131, 406, 100,
 19:48:13.244,e8:da:bf:c6:3e:4f, 2015-01-01 01:06:10.990, 0.272, 0.052, -0.818, 2.197, 0.854, -35.889, , , , , , , 179.555, -0.709, -97.795, -78.300, 13.100, -69.807, 20.42, 0.00723, 0.67804, -0.73492, -0.00131, 406, 100,
 19:48:13.244,e8:da:bf:c6:3e:4f, 2015-01-01 01:06:10.990, -0.003, -0.001, -0.89, 3.235, -0.671, -39.551, , , , , , , 179.583, -0.709, -97.416, -78.300, 13.100, -69.807, 20.42, 0.00723, 0.67804, -0.73492, -0.00131, 406, 100,
 19:48:13.244,e8:da:bf:c6:3e:4f, 2015-01-01 01:06:10.990, -0.157, -0.029, -1.095, 1.343, 0, -40.466, , , , , , , 179.604, -0.703, -97.015, -78.300, 13.100, -69.807, 20.42, 0.00723, 0.67804, -0.73492, -0.00131, 406, 100,
 19:48:13.244,e8:da:bf:c6:3e:4f, 2015-01-01 01:06:10.990, -0.693, -0.005, -1.224, -1.709, -4.7, -42.114, , , , , , , 179.594, -0.67, -96.608, -78.300, 13.100, -69.807, 20.42, 0.00723, 0.67804, -0.73492, -0.00131, 406, 100,
 19:48:13.244,e8:da:bf:c6:3e:4f, 2015-01-01 01:06:10.990, -1.262, 0.007, -1.15, -3.113, -0.244, -28.564, , , , , , , 179.561, -0.648, -96.229, -78.300, 13.100, -69.807, 20.42, 0.00723, 0.67804, -0.73492, -0.00131, 406, 100,
 19:48:13.244,e8:da:bf:c6:3e:4f, 2015-01-01 01:06:10.990, -1.47, -0.009, -0.995, -3.174, -1.648, 0.305, , , , , , , 179.528, -0.632, -96.125, -78.300, 13.100, -69.807, 20.42, 0.00723, 0.67804, -0.73492, -0.00131, 406, 100,
 19:48:13.244,e8:da:bf:c6:3e:4f, 2015-01-01 01:06:10.990, -1.498, -0.051, -0.766, 0.244, 0.671, 17.822, , , , , , , 179.511, -0.626, -96.202, -78.300, 13.100, -69.807, 20.42, 0.00723, 0.67804, -0.73492, -0.00131, 406, 100,
 19:48:13.244,e8:da:bf:c6:3e:4f, 2015-01-01 01:06:10.990, -1.314, -0.083, -0.741, 2.808, 1.587, 42.969, , , , , , , 179.533, -0.643, -96.537, -78.300, 13.100, -69.807, 20.42, 0.00723, 0.67804, -0.73492, -0.00131, 406, 100,
 19:48:13.244,e8:da:bf:c6:3e:4f, 2015-01-01 01:06:10.990, -1.101, -0.077, -0.932, 2.319, 1.648, 57.678, , , , , , , 179.566, -0.67, -97.042, -78.300, 13.100, -69.807, 20.42, 0.00723, 0.67804, -0.73492, -0.00131, 406, 100,
 19:48:13.244,e8:da:bf:c6:3e:4f, 2015-01-01 01:06:10.990, -0.763, -0.07, -1.081, 0.732, 1.099, 76.599, , , , , , , 179.588, -0.687, -97.734, -78.300, 13.100, -69.807, 20.42, 0.00723, 0.67804, -0.73492, -0.00131, 406, 100,
 19:48:13.244,e8:da:bf:c6:3e:4f, 2015-01-01 01:06:10.990, -0.46, -0.075, -1.108, -0.122, 1.282, 85.632, , , , , , , 179.599, -0.709, -98.553, -78.300, 13.100, -69.807, 20.42, 0.00723, 0.67804, -0.73492, -0.00131, 406, 100,
 19:48:13.245,e8:da:bf:c6:3e:4f, 2015-01-01 01:06:10.990, -0.223, -0.088, -1.101, -1.709, 0.427, 91.98, , , , , , , 179.594, -0.72, -99.454, -78.300, 13.100, -69.807, 20.42, 0.00723, 0.67804, -0.73492, -0.00131, 406, 100,
 19:48:13.245,e8:da:bf:c6:3e:4f, 2015-01-01 01:06:10.990, -0.14, -0.093, -1.015, -1.77, 0.122, 92.346, , , , , , , 179.588, -0.736, -100.377, -78.300, 13.100, -69.807, 20.42, 0.00723, 0.67804, -0.73492, -0.00131, 406, 100,
 19:48:13.286,e8:da:bf:c6:3e:4f, 2015-01-01 01:06:10.990, -0.143, -0.09, -0.881, -0.549, -0.854, 94.238, , , , , , , 179.583, -0.736, -101.31, -78.300, 13.100, -69.807, 20.42, 0.00723, 0.67804, -0.73492, -0.00131, 406, 100,
 19:48:13.286,e8:da:bf:c6:3e:4f, 2015-01-01 01:06:10.990, -0.179, -0.096, -0.824, 1.526, -0.183, 96.252, , , , , , , 179.599, -0.742, -102.266, -78.300, 13.100, -69.807, 20.42, 0.00723, 0.67804, -0.73492, -0.00131, 406, 100,
 19:48:13.286,e8:da:bf:c6:3e:4f, 2015-01-01 01:06:10.990, -0.195, -0.112, -0.979, 1.038, -0.305, 100.098, , , , , , , 179.626, -0.747, -103.255, -78.300, 13.100, -69.807, 20.42, 0.00723, 0.67804, -0.73492, -0.00131, 406, 100,
 19:48:13.286,e8:da:bf:c6:3e:4f, 2015-01-01 01:06:10.990, -0.328, -0.132, -1.149, -1.587, -1.709, 100.342, , , , , , , 179.632, -0.747, -104.255, -78.300, 13.100, -69.807, 20.42, 0.00723, 0.67804, -0.73492, -0.00131, 406, 100,
 19:48:13.338,e8:da:bf:c6:3e:4f, 2015-01-01 01:06:10.990, -0.425, -0.157, -1.088, -2.014, -2.136, 106.201, , , , , , , 179.621, -0.731, -105.287, -78.300, 13.100, -69.807, 20.42, 0.00723, 0.67804, -0.73492, -0.00131, 406, 100,
 19:48:13.338,e8:da:bf:c6:3e:4f, 2015-01-01 01:06:10.990, -0.555, -0.16, -0.924, -0.549, -2.38, 112.244, , , , , , , 179.615, -0.72, -106.392, -78.300, 13.100, -69.807, 20.42, 0.00723, 0.67804, -0.73492, -0.00131, 406, 100,
 19:48:13.338,e8:da:bf:c6:3e:4f, 2015-01-01 01:06:10.990, -0.682, -0.16, -0.873, 0.549, -2.197, 119.934, , , , , , , 179.626, -0.698, -107.551, -78.300, 13.100, -69.807, 20.42, 0.00723, 0.67804, -0.73492, -0.00131, 406, 100,
 19:48:13.339,e8:da:bf:c6:3e:4f, 2015-01-01 01:06:10.990, -0.682, -0.183, -0.958, 0.061, -0.488, 132.324, , , , , , , 179.643, -0.703, -108.825, -78.300, 13.100, -69.807, 20.42, 0.00723, 0.67804, -0.73492, -0.00131, 406, 100,
 19:48:13.355,e8:da:bf:c6:3e:4f, 2015-01-01 01:06:10.990, -0.6, -0.233, -1.028, -0.732, 0.061, 140.808, , , , , , , 179.654, -0.703, -110.198, -78.300, 13.100, -69.807, 20.42, 0.00723, 0.67804, -0.73492, -0.00131, 406, 100,
 19:48:13.355,e8:da:bf:c6:3e:4f, 2015-01-01 01:06:10.990, -0.324, -0.297, -0.991, -0.61, 2.258, 153.015, , , , , , , 179.659, -0.736, -111.671, -78.300, 13.100, -69.807, 20.42, 0.00723, 0.67804, -0.73492, -0.00131, 406, 100,
 19:48:13.355,e8:da:bf:c6:3e:4f, 2015-01-01 01:06:10.990, -0.057, -0.318, -0.951, 0.305, 2.075, 157.104, , , , , , , 179.676, -0.764, -113.231, -78.300, 13.100, -69.807, 20.42, 0.00723, 0.67804, -0.73492, -0.00131, 406, 100,
 19:48:13.355,e8:da:bf:c6:3e:4f, 2015-01-01 01:06:10.990, 0.091, -0.298, -1.041, -0.793, -0.61, 157.349, , , , , , , 179.687, -0.786, -114.807, -78.300, 13.100, -69.807, 20.42, 0.00723, 0.67804, -0.73492, -0.00131, 406, 100,
 19:48:13.582,e8:da:bf:c6:3e:4f, 2015-01-01 01:06:10.990, 0.122, -0.274, -1.077, -2.38, -0.61, 156.006, , , , , , , 179.687, -0.786, -116.378, -78.300, 13.100, -69.807, 20.42, 0.00684, 0.50977, -0.86023, -0.00122, 406, 100,
 19:48:13.666,e8:da:bf:c6:3e:4f, 2015-01-01 01:06:11.345, 0.108, -0.267, -0.959, -1.648, -0.793, 153.687, , , , , , , 179.681, -0.791, -117.927, -78.300, 13.100, -69.807, 20.42, 0.00684, 0.50977, -0.86023, -0.00122, 406, 100,
 19:48:13.666,e8:da:bf:c6:3e:4f, 2015-01-01 01:06:11.345, 0.078, -0.271, -0.838, 0.244, -1.099, 151.367, , , , , , , 179.692, -0.791, -119.454, -78.300, 13.100, -69.807, 20.42, 0.00684, 0.50977, -0.86023, -0.00122, 406, 100,
 19:48:13.666,e8:da:bf:c6:3e:4f, 2015-01-01 01:06:11.345, 0.056, -0.278, -0.863, 1.526, -1.099, 150.208, , , , , , , 179.72, -0.791, -120.959, -78.300, 13.100, -69.807, 20.42, 0.00684, 0.50977, -0.86023, -0.00122, 406, 100,
 19:48:13.682,e8:da:bf:c6:3e:4f, 2015-01-01 01:06:11.345, 0.074, -0.279, -1.034, 0.427, -0.732, 150.696, , , , , , , 179.747, -0.786, -122.47, -78.300, 13.100, -69.807, 20.42, 0.00684, 0.50977, -0.86023, -0.00122, 406, 100,
 19:48:13.682,e8:da:bf:c6:3e:4f, 2015-01-01 01:06:11.345, 0.071, -0.28, -1.155, -2.014, -0.793, 149.17, , , , , , , 179.753, -0.791, -123.97, -78.300, 13.100, -69.807, 20.42, 0.00684, 0.50977, -0.86023, -0.00122, 406, 100,
 19:48:13.682,e8:da:bf:c6:3e:4f, 2015-01-01 01:06:11.345, 0.038, -0.283, -1.056, -2.258, -2.197, 147.339, , , , , , , 179.742, -0.786, -125.453, -78.300, 13.100, -69.807, 20.42, 0.00684, 0.50977, -0.86023, -0.00122, 406, 100,
 19:48:13.682,e8:da:bf:c6:3e:4f, 2015-01-01 01:06:11.345, -0.074, -0.276, -0.877, -0.061, -4.211, 143.616, , , , , , , 179.747, -0.758, -126.914, -78.300, 13.100, -69.807, 20.42, 0.00684, 0.50977, -0.86023, -0.00122, 406, 100,
 19:48:13.682,e8:da:bf:c6:3e:4f, 2015-01-01 01:06:11.345, -0.647, -0.258, -0.869, 0.793, -3.113, 137.268, , , , , , , 179.769, -0.725, -128.315, -78.300, 13.100, -69.807, 20.42, 0.00684, 0.50977, -0.86023, -0.00122, 406, 100,
 19:48:13.682,e8:da:bf:c6:3e:4f, 2015-01-01 01:06:11.345, -0.722, -0.293, -0.997, 0.488, -0.732, 159.851, , , , , , , 179.791, -0.72, -129.781, -78.300, 13.100, -69.807, 20.42, 0.00684, 0.50977, -0.86023, -0.00122, 406, 100,
 19:48:13.682,e8:da:bf:c6:3e:4f, 2015-01-01 01:06:11.345, -0.536, -0.344, -1.055, -1.648, -0.366, 174.438, , , , , , , 179.797, -0.72, -131.495, -78.300, 13.100, -69.807, 20.42, 0.00684, 0.50977, -0.86023, -0.00122, 406, 100,
 19:48:13.683,e8:da:bf:c6:3e:4f, 2015-01-01 01:06:11.345, -0.364, -0.396, -0.982, -0.854, 0.488, 176.086, , , , , , , 179.797, -0.731, -133.237, -78.300, 13.100, -69.807, 20.42, 0.00684, 0.50977, -0.86023, -0.00122, 406, 100,
 19:48:13.683,e8:da:bf:c6:3e:4f, 2015-01-01 01:06:11.345, -0.124, -0.433, -0.93, 0.366, 0.244, 185.242, , , , , , , 179.819, -0.742, -135.06, -78.300, 13.100, -69.807, 20.42, 0.00684, 0.50977, -0.86023, -0.00122, 406, 100,
 19:48:13.683,e8:da:bf:c6:3e:4f, 2015-01-01 01:06:11.345, -0.036, -0.425, -1.025, -0.671, 0.977, 183.777, , , , , , , 179.835, -0.764, -136.906, -78.300, 13.100, -69.807, 20.42, 0.00684, 0.50977, -0.86023, -0.00122, 406, 100,
 19:48:13.683,e8:da:bf:c6:3e:4f, 2015-01-01 01:06:11.345, 0.05, -0.41, -1.083, -2.38, -0.061, 187.317, , , , , , , 179.835, -0.769, -138.763, -78.300, 13.100, -69.807, 20.42, 0.00684, 0.50977, -0.86023, -0.00122, 406, 100,
 19:48:13.683,e8:da:bf:c6:3e:4f, 2015-01-01 01:06:11.345, 0.102, -0.405, -0.972, -1.892, -0.854, 186.829, , , , , , , 179.83, -0.775, -140.641, -78.300, 13.100, -69.807, 20.42, 0.00684, 0.50977, -0.86023, -0.00122, 406, 100,
 19:48:13.683,e8:da:bf:c6:3e:4f, 2015-01-01 01:06:11.345, 0.11, -0.415, -0.833, 0.427, -1.404, 184.082, , , , , , , 179.846, -0.769, -142.498, -78.300, 13.100, -69.807, 20.42, 0.00684, 0.50977, -0.86023, -0.00122, 406, 100,
 19:48:13.683,e8:da:bf:c6:3e:4f, 2015-01-01 01:06:11.345, 0.088, -0.422, -0.883, 1.404, -1.343, 181.763, , , , , , , 179.874, -0.764, -144.327, -78.300, 13.100, -69.807, 20.42, 0.00684, 0.50977, -0.86023, -0.00122, 406, 100,
 19:48:13.683,e8:da:bf:c6:3e:4f, 2015-01-01 01:06:11.345, 0.067, -0.42, -1.076, -0.244, -0.977, 180.786, , , , , , , 179.901, -0.753, -146.14, -78.300, 13.100, -69.807, 20.42, 0.00684, 0.50977, -0.86023, -0.00122, 406, 100,
 19:48:13.684,e8:da:bf:c6:3e:4f, 2015-01-01 01:06:11.345, 0.064, -0.415, -1.165, -2.502, -0.854, 180.664, , , , , , , 179.901, -0.753, -147.947, -78.300, 13.100, -69.807, 20.42, 0.00684, 0.50977, -0.86023, -0.00122, 406, 100,
 19:48:13.684,e8:da:bf:c6:3e:4f, 2015-01-01 01:06:11.345, 0.058, -0.41, -1.03, -2.38, -0.977, 179.81, , , , , , , 179.896, -0.747, -149.755, -78.300, 13.100, -69.807, 20.42, 0.00684, 0.50977, -0.86023, -0.00122, 406, 100,
 19:48:13.684,e8:da:bf:c6:3e:4f, 2015-01-01 01:06:11.345, 0.04, -0.402, -0.849, 0, -1.587, 178.894, , , , , , , 179.901, -0.742, -151.551, -78.300, 13.100, -69.807, 20.42, 0.00684, 0.50977, -0.86023, -0.00122, 406, 100,
 19:48:13.684,e8:da:bf:c6:3e:4f, 2015-01-01 01:06:11.345, 0, -0.39, -0.877, 0.671, -2.686, 177.917, , , , , , , 179.923, -0.72, -153.336, -78.300, 13.100, -69.807, 20.42, 0.00684, 0.50977, -0.86023, -0.00122, 406, 100,
 19:48:13.684,e8:da:bf:c6:3e:4f, 2015-01-01 01:06:11.345, -0.05, -0.389, -0.997, -0.122, -1.831, 177.368, , , , , , , 179.945, -0.703, -155.11, -78.300, 13.100, -69.807, 20.42, 0.00684, 0.50977, -0.86023, -0.00122, 406, 100,
 19:48:13.684,e8:da:bf:c6:3e:4f, 2015-01-01 01:06:11.345, -0.074, -0.401, -1.055, -1.099, -0.061, 178.528, , , , , , , 179.951, -0.698, -156.89, -78.300, 13.100, -69.807, 20.42, 0.00684, 0.50977, -0.86023, -0.00122, 406, 100,
 19:48:13.684,e8:da:bf:c6:3e:4f, 2015-01-01 01:06:11.345, 0, -0.42, -1.012, -0.916, -0.244, 182.983, , , , , , , 179.956, -0.703, -158.703, -78.300, 13.100, -69.807, 20.42, 0.00684, 0.50977, -0.86023, -0.00122, 406, 100,
 19:48:13.684,e8:da:bf:c6:3e:4f, 2015-01-01 01:06:11.345, 0.069, -0.425, -0.97, -0.427, -0.671, 183.35, , , , , , , 179.967, -0.698, -160.543, -78.300, 13.100, -69.807, 20.42, 0.00684, 0.50977, -0.86023, -0.00122, 406, 100,
 19:48:13.684,e8:da:bf:c6:3e:4f, 2015-01-01 01:06:11.345, 0.232, -0.412, -0.957, -0.61, 5.127, 186.523, , , , , , , 179.978, -0.714, -162.383, -78.300, 13.100, -69.807, 20.42, 0.00684, 0.50977, -0.86023, -0.00122, 406, 100,
 19:48:13.685,e8:da:bf:c6:3e:4f, 2015-01-01 01:06:11.345, 2.676, -0.41, -0.945, 2.502, 0.183, 212.769, , , , , , , -179.995, -0.764, -164.394, -78.300, 13.100, -69.807, 20.42, 0.00684, 0.50977, -0.86023, -0.00122, 406, 100,
 19:48:13.685,e8:da:bf:c6:3e:4f, 2015-01-01 01:06:11.345, 3.985, -0.233, -1.039, 3.296, 0.183, 140.381, , , , , , , -179.923, -0.731, -166.218, -78.300, 13.100, -69.807, 20.42, 0.00684, 0.50977, -0.86023, -0.00122, 406, 100,
 19:48:13.685,e8:da:bf:c6:3e:4f, 2015-01-01 01:06:11.345, 5.142, -0.109, -1.089, -2.014, 5.432, 86.67, , , , , , , -179.918, -0.78, -167.272, -78.300, 13.100, -69.807, 20.42, 0.00684, 0.50977, -0.86023, -0.00122, 406, 100,
 19:48:13.685,e8:da:bf:c6:3e:4f, 2015-01-01 01:06:11.345, 4.686, -0.004, -0.973, 0.549, -6.897, 0.977, , , , , , , -179.918, -0.764, -167.745, -78.300, 13.100, -69.807, 20.42, 0.00684, 0.50977, -0.86023, -0.00122, 406, 100,
 19:48:13.709,e8:da:bf:c6:3e:4f, 2015-01-01 01:06:11.345, 3.292, -0.024, -0.864, -0.122, -10.437, -70.007, , , , , , , -179.918, -0.681, -167.289, -78.300, 13.100, -69.807, 20.42, 0.00684, 0.50977, -0.86023, -0.00122, 406, 100,
 19:48:13.710,e8:da:bf:c6:3e:4f, 2015-01-01 01:06:11.345, 1.368, -0.066, -0.854, 1.77, -10.925, -114.075, , , , , , , -179.918, -0.538, -166.371, -78.300, 13.100, -69.807, 20.42, 0.00684, 0.50977, -0.86023, -0.00122, 406, 100,
 19:48:13.710,e8:da:bf:c6:3e:4f, 2015-01-01 01:06:11.345, -0.744, -0.06, -0.975, -1.465, 1.77, -142.395, , , , , , , -179.923, -0.533, -165.031, -78.300, 13.100, -69.807, 20.42, 0.00684, 0.50977, -0.86023, -0.00122, 406, 100,
 19:48:13.710,e8:da:bf:c6:3e:4f, 2015-01-01 01:06:11.345, -2.298, -0.105, -1.22, -5.249, -8.972, -114.685, , , , , , , -179.962, -0.472, -163.718, -78.300, 13.100, -69.807, 20.42, 0.00684, 0.50977, -0.86023, -0.00122, 406, 100,
 19:48:13.801,e8:da:bf:c6:3e:4f, 2015-01-01 01:06:11.345, -3.812, -0.121, -1.292, -6.714, -6.348, -77.087, , , , , , , 179.962, -0.396, -162.79, -78.300, 13.100, -69.807, 20.42, 0.00232, 0.15207, -0.98831, -0.00204, 406, 100,
 19:48:13.896,e8:da:bf:c6:3e:4f, 2015-01-01 01:06:11.345, -3.711, -0.183, -0.819, -1.221, 3.479, -2.686, , , , , , , 179.934, -0.385, -162.394, -78.300, 13.100, -69.807, 20.42, 0.00232, 0.15207, -0.98831, -0.00204, 406, 100,
 19:48:13.896,e8:da:bf:c6:3e:4f, 2015-01-01 01:06:11.705, -2.553, -0.181, -0.415, 2.747, 9.705, 55.725, , , , , , , 179.94, -0.461, -162.74, -78.300, 13.100, -69.807, 20.42, 0.00232, 0.15207, -0.98831, -0.00204, 406, 100,
 19:48:13.896,e8:da:bf:c6:3e:4f, 2015-01-01 01:06:11.705, -1.041, -0.127, -0.591, 6.592, 15.076, 88.928, , , , , , , -179.995, -0.599, -163.477, -78.300, 13.100, -69.807, 20.42, 0.00232, 0.15207, -0.98831, -0.00204, 406, 100,
 19:48:13.919,e8:da:bf:c6:3e:4f, 2015-01-01 01:06:11.705, 0.283, -0.051, -1.197, 2.625, 2.991, 106.934, , , , , , , -179.94, -0.698, -164.498, -78.300, 13.100, -69.807, 20.42, 0.00232, 0.15207, -0.98831, -0.00204, 406, 100,
 19:48:13.920,e8:da:bf:c6:3e:4f, 2015-01-01 01:06:11.705, 1.821, 0.015, -1.542, -4.15, 1.953, 99.182, , , , , , , -179.945, -0.731, -165.536, -78.300, 13.100, -69.807, 20.42, 0.00232, 0.15207, -0.98831, -0.00204, 406, 100,
 19:48:13.920,e8:da:bf:c6:3e:4f, 2015-01-01 01:06:11.705, 3.448, -0.023, -1.212, -2.38, 3.296, 71.594, , , , , , , -179.973, -0.753, -166.415, -78.300, 13.100, -69.807, 20.42, 0.00232, 0.15207, -0.98831, -0.00204, 406, 100,
 19:48:13.920,e8:da:bf:c6:3e:4f, 2015-01-01 01:06:11.705, 3.805, -0.044, -0.681, 2.136, -0.488, 2.136, , , , , , , -179.967, -0.769, -166.761, -78.300, 13.100, -69.807, 20.42, 0.00232, 0.15207, -0.98831, -0.00204, 406, 100,
 19:48:13.920,e8:da:bf:c6:3e:4f, 2015-01-01 01:06:11.705, 2.94, -0.036, -0.677, 5.188, -9.766, -61.462, , , , , , , -179.923, -0.714, -166.415, -78.300, 13.100, -69.807, 20.42, 0.00232, 0.15207, -0.98831, -0.00204, 406, 100,
 19:48:13.920,e8:da:bf:c6:3e:4f, 2015-01-01 01:06:11.705, 1.295, -0.029, -1.094, -0.427, -4.395, -106.689, , , , , , , -179.901, -0.615, -165.526, -78.300, 13.100, -69.807, 20.42, 0.00232, 0.15207, -0.98831, -0.00204, 406, 100,
 19:48:13.920,e8:da:bf:c6:3e:4f, 2015-01-01 01:06:11.705, 0, -0.031, -1.282, -5.31, -0.122, -120.056, , , , , , , -179.951, -0.615, -164.372, -78.300, 13.100, -69.807, 20.42, 0.00232, 0.15207, -0.98831, -0.00204, 406, 100,
 19:48:13.920,e8:da:bf:c6:3e:4f, 2015-01-01 01:06:11.705, -1.164, -0.087, -1.072, -4.333, -8.545, -119.812, , , , , , , 179.989, -0.582, -163.169, -78.300, 13.100, -69.807, 20.42, 0.00232, 0.15207, -0.98831, -0.00204, 406, 100,
 19:48:13.920,e8:da:bf:c6:3e:4f, 2015-01-01 01:06:11.705, -2.685, -0.143, -0.881, -1.526, -8.301, -101.99, , , , , , , 179.951, -0.489, -162.043, -78.300, 13.100, -69.807, 20.42, 0.00232, 0.15207, -0.98831, -0.00204, 406, 100,
 19:48:13.920,e8:da:bf:c6:3e:4f, 2015-01-01 01:06:11.705, -3.955, -0.162, -0.927, 1.892, -5.859, -55.298, , , , , , , 179.956, -0.412, -161.263, -78.300, 13.100, -69.807, 20.42, 0.00232, 0.15207, -0.98831, -0.00204, 406, 100,
 19:48:13.920,e8:da:bf:c6:3e:4f, 2015-01-01 01:06:11.705, -4.14, -0.156, -0.935, 0.427, 1.221, 11.108, , , , , , , 179.967, -0.39, -161.065, -78.300, 13.100, -69.807, 20.42, 0.00232, 0.15207, -0.98831, -0.00204, 406, 100,
 19:48:13.920,e8:da:bf:c6:3e:4f, 2015-01-01 01:06:11.705, -2.734, -0.162, -0.795, 1.282, 12.207, 79.895, , , , , , , 179.973, -0.467, -161.565, -78.300, 13.100, -69.807, 20.42, 0.00232, 0.15207, -0.98831, -0.00204, 406, 100,
 19:48:13.921,e8:da:bf:c6:3e:4f, 2015-01-01 01:06:11.705, -0.979, -0.172, -0.725, 0.549, 12.39, 122.253, , , , , , , 179.984, -0.599, -162.631, -78.300, 13.100, -69.807, 20.42, 0.00232, 0.15207, -0.98831, -0.00204, 406, 100,
 19:48:13.921,e8:da:bf:c6:3e:4f, 2015-01-01 01:06:11.705, 0.078, -0.163, -0.938, 3.906, 3.845, 128.052, , , , , , , -179.978, -0.703, -163.9, -78.300, 13.100, -69.807, 20.42, 0.00232, 0.15207, -0.98831, -0.00204, 406, 100,
 19:48:13.921,e8:da:bf:c6:3e:4f, 2015-01-01 01:06:11.705, 1.712, -0.127, -1.289, -0.732, 5.005, 136.353, , , , , , , -179.945, -0.747, -165.212, -78.300, 13.100, -69.807, 20.42, 0.00232, 0.15207, -0.98831, -0.00204, 406, 100,
 19:48:13.921,e8:da:bf:c6:3e:4f, 2015-01-01 01:06:11.705, 3.754, -0.1, -1.35, 1.648, -2.808, 116.089, , , , , , , -179.929, -0.747, -166.553, -78.300, 13.100, -69.807, 20.42, 0.00232, 0.15207, -0.98831, -0.00204, 406, 100,
 19:48:13.937,e8:da:bf:c6:3e:4f, 2015-01-01 01:06:11.705, 4.457, -0.024, -0.984, -2.441, 3.052, 28.687, , , , , , , -179.934, -0.753, -167.206, -78.300, 13.100, -69.807, 20.42, 0.00232, 0.15207, -0.98831, -0.00204, 406, 100,
 19:48:13.937,e8:da:bf:c6:3e:4f, 2015-01-01 01:06:11.705, 4.322, -0.001, -0.664, 2.991, -5.066, -25.085, , , , , , , -179.934, -0.753, -167.228, -78.300, 13.100, -69.807, 20.42, 0.00232, 0.15207, -0.98831, -0.00204, 406, 100,
 19:48:13.937,e8:da:bf:c6:3e:4f, 2015-01-01 01:06:11.705, 2.725, 0.004, -0.818, 2.136, -9.094, -105.652, , , , , , , -179.901, -0.665, -166.503, -78.300, 13.100, -69.807, 20.42, 0.00232, 0.15207, -0.98831, -0.00204, 406, 100,
 19:48:13.937,e8:da:bf:c6:3e:4f, 2015-01-01 01:06:11.705, 1.27, -0.087, -1.104, -1.038, -6.104, -125.122, , , , , , , -179.912, -0.588, -165.317, -78.300, 13.100, -69.807, 20.42, 0.00232, 0.15207, -0.98831, -0.00204, 406, 100,
 19:48:14.029,e8:da:bf:c6:3e:4f, 2015-01-01 01:06:11.705, 0.162, -0.144, -1.048, -1.648, -0.61, -152.039, , , , , , , -179.934, -0.566, -163.932, -78.300, 13.100, -69.807, 20.42, 0.00232, 0.15207, -0.98831, -0.00204, 406, 100,
 19:48:14.193,e8:da:bf:c6:3e:4f, 2015-01-01 01:06:11.705, -0.661, -0.203, -0.93, -1.831, 3.357, -154.602, , , , , , , -179.967, -0.588, -162.367, -78.300, 13.100, -69.807, 20.42, 0.00232, 0.15207, -0.98831, -0.00204, 406, 100,
 19:48:14.193,e8:da:bf:c6:3e:4f, 2015-01-01 01:06:12.060, -0.802, -0.246, -0.932, 0.977, -5.859, -126.465, , , , , , , -179.978, -0.577, -160.983, -78.300, 13.100, -69.807, 20.42, 0.00458, 0.24548, -0.96933, -0.00104, 406, 100,
 19:48:14.193,e8:da:bf:c6:3e:4f, 2015-01-01 01:06:12.060, -1.507, -0.208, -1.155, -2.563, -3.052, -127.869, , , , , , , -179.989, -0.516, -159.719, -78.300, 13.100, -69.807, 20.42, 0.00458, 0.24548, -0.96933, -0.00104, 406, 100,
 19:48:14.220,e8:da:bf:c6:3e:4f, 2015-01-01 01:06:12.060, -1.521, -0.205, -1.164, -4.944, 4.028, -92.346, , , , , , , 179.956, -0.538, -158.599, -78.300, 13.100, -69.807, 20.42, 0.00458, 0.24548, -0.96933, -0.00104, 406, 100,
 19:48:14.220,e8:da:bf:c6:3e:4f, 2015-01-01 01:06:12.060, -1.204, -0.149, -0.865, -1.343, 3.357, -68.359, , , , , , , 179.923, -0.571, -157.852, -78.300, 13.100, -69.807, 20.42, 0.00458, 0.24548, -0.96933, -0.00104, 406, 100,
 19:48:14.221,e8:da:bf:c6:3e:4f, 2015-01-01 01:06:12.060, -0.708, -0.095, -0.633, 3.479, 6.958, -54.077, , , , , , , 179.929, -0.626, -157.225, -78.300, 13.100, -69.807, 20.42, 0.00458, 0.24548, -0.96933, -0.00104, 406, 100,
 19:48:14.221,e8:da:bf:c6:3e:4f, 2015-01-01 01:06:12.060, -0.035, -0.037, -0.78, 5.432, 4.517, -36.926, , , , , , , 179.978, -0.692, -156.802, -78.300, 13.100, -69.807, 20.42, 0.00458, 0.24548, -0.96933, -0.00104, 406, 100,
 19:48:14.221,e8:da:bf:c6:3e:4f, 2015-01-01 01:06:12.060, 0.225, 0.007, -1.22, 0.488, 2.991, -42.908, , , , , , , -179.995, -0.709, -156.407, -78.300, 13.100, -69.807, 20.42, 0.00458, 0.24548, -0.96933, -0.00104, 406, 100,
 19:48:14.222,e8:da:bf:c6:3e:4f, 2015-01-01 01:06:12.060, 1.549, -0.012, -1.315, -3.418, 3.967, -31.006, , , , , , , 179.984, -0.758, -156.028, -78.300, 13.100, -69.807, 20.42, 0.00458, 0.24548, -0.96933, -0.00104, 406, 100,
 19:48:14.222,e8:da:bf:c6:3e:4f, 2015-01-01 01:06:12.060, 2.626, -0.032, -1.048, 1.892, -4.089, -60.73, , , , , , , 179.978, -0.742, -155.643, -78.300, 13.100, -69.807, 20.42, 0.00458, 0.24548, -0.96933, -0.00104, 406, 100,
 19:48:14.222,e8:da:bf:c6:3e:4f, 2015-01-01 01:06:12.060, 2.553, -0.081, -0.8, -0.427, 3.113, -123.352, , , , , , , 179.973, -0.736, -154.633, -78.300, 13.100, -69.807, 20.42, 0.00458, 0.24548, -0.96933, -0.00104, 406, 100,
 19:48:14.222,e8:da:bf:c6:3e:4f, 2015-01-01 01:06:12.060, 2.097, -0.165, -0.855, 2.075, -5.676, -146.851, , , , , , , 179.973, -0.725, -153.303, -78.300, 13.100, -69.807, 20.42, 0.00458, 0.24548, -0.96933, -0.00104, 406, 100,
 19:48:14.223,e8:da:bf:c6:3e:4f, 2015-01-01 01:06:12.060, 0.945, -0.255, -0.989, -1.648, -0.732, -188.782, , , , , , , 179.962, -0.67, -151.573, -78.300, 13.100, -69.807, 20.42, 0.00458, 0.24548, -0.96933, -0.00104, 406, 100,
 19:48:14.223,e8:da:bf:c6:3e:4f, 2015-01-01 01:06:12.060, 0.295, -0.373, -0.948, -0.183, 2.869, -185.486, , , , , , , 179.929, -0.692, -149.689, -78.300, 13.100, -69.807, 20.42, 0.00458, 0.24548, -0.96933, -0.00104, 406, 100,
 19:48:14.223,e8:da:bf:c6:3e:4f, 2015-01-01 01:06:12.060, -0.037, -0.422, -0.858, 2.747, 1.038, -191.65, , , , , , , 179.929, -0.692, -147.816, -78.300, 13.100, -69.807, 20.42, 0.00458, 0.24548, -0.96933, -0.00104, 406, 100,
 19:48:14.223,e8:da:bf:c6:3e:4f, 2015-01-01 01:06:12.060, -0.347, -0.445, -1.036, 1.892, -2.686, -197.754, , , , , , , 179.94, -0.698, -145.86, -78.300, 13.100, -69.807, 20.42, 0.00458, 0.24548, -0.96933, -0.00104, 406, 100,
 19:48:14.224,e8:da:bf:c6:3e:4f, 2015-01-01 01:06:12.060, -0.959, -0.44, -1.257, -2.808, -0.244, -195.618, , , , , , , 179.918, -0.665, -143.877, -78.300, 13.100, -69.807, 20.42, 0.00458, 0.24548, -0.96933, -0.00104, 406, 100,
 19:48:14.224,e8:da:bf:c6:3e:4f, 2015-01-01 01:06:12.060, -0.848, -0.425, -1.188, -4.089, 1.648, -161.316, , , , , , , 179.863, -0.676, -142.108, -78.300, 13.100, -69.807, 20.42, 0.00458, 0.24548, -0.96933, -0.00104, 406, 100,
 19:48:14.224,e8:da:bf:c6:3e:4f, 2015-01-01 01:06:12.060, -0.674, -0.354, -0.831, -1.038, 3.601, -153.564, , , , , , , 179.824, -0.692, -140.559, -78.300, 13.100, -69.807, 20.42, 0.00458, 0.24548, -0.96933, -0.00104, 406, 100,
 19:48:14.224,e8:da:bf:c6:3e:4f, 2015-01-01 01:06:12.060, -0.325, -0.299, -0.62, 3.906, 5.188, -142.029, , , , , , , 179.824, -0.742, -139.076, -78.300, 13.100, -69.807, 20.42, 0.00458, 0.24548, -0.96933, -0.00104, 406, 100,
 19:48:14.225,e8:da:bf:c6:3e:4f, 2015-01-01 01:06:12.060, 0.002, -0.242, -0.854, 4.272, 1.404, -136.536, , , , , , , 179.857, -0.769, -137.703, -78.300, 13.100, -69.807, 20.42, 0.00458, 0.24548, -0.96933, -0.00104, 406, 100,
 19:48:14.225,e8:da:bf:c6:3e:4f, 2015-01-01 01:06:12.060, 0.044, -0.223, -1.211, 0, 0.61, -142.517, , , , , , , 179.863, -0.775, -136.307, -78.300, 13.100, -69.807, 20.42, 0.00458, 0.24548, -0.96933, -0.00104, 406, 100,
 19:48:14.225,e8:da:bf:c6:3e:4f, 2015-01-01 01:06:12.060, 0.094, -0.253, -1.242, -2.747, 4.456, -139.771, , , , , , , 179.83, -0.797, -134.885, -78.300, 13.100, -69.807, 20.42, 0.00458, 0.24548, -0.96933, -0.00104, 406, 100,
 19:48:14.241,e8:da:bf:c6:3e:4f, 2015-01-01 01:06:12.060, 0.97, -0.292, -0.994, -0.977, -0.488, -124.207, , , , , , , 179.797, -0.818, -133.577, -78.300, 13.100, -69.807, 20.42, 0.00458, 0.24548, -0.96933, -0.00104, 406, 100,
 19:48:14.241,e8:da:bf:c6:3e:4f, 2015-01-01 01:06:12.060, 1.218, -0.267, -0.849, 1.831, -3.296, -156.25, , , , , , , 179.791, -0.764, -132.209, -78.300, 13.100, -69.807, 20.42, 0.00458, 0.24548, -0.96933, -0.00104, 406, 100,
 19:48:14.241,e8:da:bf:c6:3e:4f, 2015-01-01 01:06:12.060, 0.867, -0.297, -0.905, 0, 3.723, -184.509, , , , , , , 179.786, -0.78, -130.446, -78.300, 13.100, -69.807, 20.42, 0.00458, 0.24548, -0.96933, -0.00104, 406, 100,
 19:48:14.241,e8:da:bf:c6:3e:4f, 2015-01-01 01:06:12.060, 0.662, -0.354, -0.962, 0.488, -0.061, -184.143, , , , , , , 179.769, -0.78, -128.617, -78.300, 13.100, -69.807, 20.42, 0.00458, 0.24548, -0.96933, -0.00104, 406, 100,
 19:48:14.351,e8:da:bf:c6:3e:4f, 2015-01-01 01:06:12.060, 0.265, -0.417, -0.901, 1.587, 0.916, -201.782, , , , , , , 179.758, -0.786, -126.678, -78.300, 13.100, -69.807, 20.42, 0.00458, 0.24548, -0.96933, -0.00104, 406, 100,
 19:48:14.351,e8:da:bf:c6:3e:4f, 2015-01-01 01:06:12.060, -0.063, -0.483, -0.904, 2.869, 0.427, -205.566, , , , , , , 179.764, -0.775, -124.629, -78.300, 13.100, -69.807, 20.42, 0.00458, 0.24548, -0.96933, -0.00104, 406, 100,
 19:48:14.351,e8:da:bf:c6:3e:4f, 2015-01-01 01:06:12.060, -0.193, -0.507, -1.081, 1.343, 1.099, -200.317, , , , , , , 179.764, -0.78, -122.602, -78.300, 13.100, -69.807, 20.42, 0.00458, 0.24548, -0.96933, -0.00104, 406, 100,
 19:48:14.351,e8:da:bf:c6:3e:4f, 2015-01-01 01:06:12.060, -0.133, -0.487, -1.212, -1.526, 0.366, -193.42, , , , , , , 179.742, -0.775, -120.635, -78.300, 13.100, -69.807, 20.42, 0.00458, 0.24548, -0.96933, -0.00104, 406, 100,
 19:48:14.372,e8:da:bf:c6:3e:4f, 2015-01-01 01:06:12.060, -0.081, -0.45, -1.059, -2.136, 0.549, -190.125, , , , , , , 179.698, -0.775, -118.729, -78.300, 13.100, -69.807, 20.42, 0.00458, 0.24548, -0.96933, -0.00104, 406, 100,
 19:48:14.372,e8:da:bf:c6:3e:4f, 2015-01-01 01:06:12.060, -0.114, -0.433, -0.791, 0.732, 0.916, -189.88, , , , , , , 179.67, -0.764, -116.829, -78.300, 13.100, -69.807, 20.42, 0.00458, 0.24548, -0.96933, -0.00104, 406, 100,
 19:48:14.372,e8:da:bf:c6:3e:4f, 2015-01-01 01:06:12.060, -0.131, -0.426, -0.754, 3.418, 1.038, -186.829, , , , , , , 179.676, -0.769, -114.95, -78.300, 13.100, -69.807, 20.42, 0.00458, 0.24548, -0.96933, -0.00104, 406, 100,
 19:48:14.372,e8:da:bf:c6:3e:4f, 2015-01-01 01:06:12.060, -0.154, -0.421, -0.986, 2.075, 1.648, -185.608, , , , , , , 179.687, -0.764, -113.088, -78.300, 13.100, -69.807, 20.42, 0.00458, 0.24548, -0.96933, -0.00104, 406, 100,
 19:48:14.396,e8:da:bf:c6:3e:4f, 2015-01-01 01:06:12.060, -0.131, -0.424, -1.168, -0.549, 1.282, -182.617, , , , , , , 179.676, -0.775, -111.248, -78.300, 13.100, -69.807, 20.42, 0.00458, 0.24548, -0.96933, -0.00104, 406, 100,
 19:48:14.396,e8:da:bf:c6:3e:4f, 2015-01-01 01:06:12.060, -0.086, -0.428, -1.102, -0.916, 1.465, -180.054, , , , , , , 179.648, -0.775, -109.44, -78.300, 13.100, -69.807, 20.42, 0.00458, 0.24548, -0.96933, -0.00104, 406, 100,
 19:48:14.396,e8:da:bf:c6:3e:4f, 2015-01-01 01:06:12.060, -0.049, -0.422, -0.95, 0.305, 1.282, -178.406, , , , , , , 179.626, -0.78, -107.65, -78.300, 13.100, -69.807, 20.42, 0.00458, 0.24548, -0.96933, -0.00104, 406, 100,
 19:48:14.396,e8:da:bf:c6:3e:4f, 2015-01-01 01:06:12.060, -0.03, -0.401, -0.912, 1.038, 0.977, -177.673, , , , , , , 179.615, -0.775, -105.87, -78.300, 13.100, -69.807, 20.42, 0.00458, 0.24548, -0.96933, -0.00104, 406, 100,
 19:48:14.397,e8:da:bf:c6:3e:4f, 2015-01-01 01:06:12.060, -0.034, -0.374, -0.986, 0.366, 0.732, -177.612, , , , , , , 179.61, -0.775, -104.095, -78.300, 13.100, -69.807, 20.42, 0.00458, 0.24548, -0.96933, -0.00104, 406, 100,
 19:48:14.397,e8:da:bf:c6:3e:4f, 2015-01-01 01:06:12.060, -0.052, -0.364, -0.992, -0.122, 0.977, -177.124, , , , , , , 179.588, -0.764, -102.321, -78.300, 13.100, -69.807, 20.42, 0.00458, 0.24548, -0.96933, -0.00104, 406, 100,
 19:48:14.397,e8:da:bf:c6:3e:4f, 2015-01-01 01:06:12.060, -0.077, -0.375, -0.915, 1.099, 1.16, -175.72, , , , , , , 179.577, -0.769, -100.563, -78.300, 13.100, -69.807, 20.42, 0.00458, 0.24548, -0.96933, -0.00104, 406, 100,
 19:48:14.397,e8:da:bf:c6:3e:4f, 2015-01-01 01:06:12.060, -0.383, -0.375, -0.917, 2.075, -4.211, -177.551, , , , , , , 179.577, -0.736, -98.806, -78.300, 13.100, -69.807, 20.42, 0.00458, 0.24548, -0.96933, -0.00104, 406, 100,
 19:48:14.442,e8:da:bf:c6:3e:4f, 2015-01-01 01:06:12.060, -1.848, -0.352, -1.079, 0.427, -5.249, -186.401, , , , , , , 179.572, -0.665, -96.971, -78.300, 13.100, -69.807, 20.42, 0.00458, 0.24548, -0.96933, -0.00104, 406, 100,
 19:48:14.443,e8:da:bf:c6:3e:4f, 2015-01-01 01:06:12.060, -3.024, -0.34, -1.284, -2.869, -6.897, -147.156, , , , , , , 179.555, -0.588, -95.279, -78.300, 13.100, -69.807, 20.42, 0.00458, 0.24548, -0.96933, -0.00104, 406, 100,
 19:48:14.443,e8:da:bf:c6:3e:4f, 2015-01-01 01:06:12.060, -3.809, -0.285, -1.084, -3.235, -3.662, -99.976, , , , , , , 179.506, -0.522, -94.087, -78.300, 13.100, -69.807, 20.42, 0.00458, 0.24548, -0.96933, -0.00104, 406, 100,
 19:48:14.443,e8:da:bf:c6:3e:4f, 2015-01-01 01:06:12.060, -3.424, -0.236, -0.656, 1.77, 4.272, -38.513, , , , , , , 179.5, -0.522, -93.395, -78.300, 13.100, -69.807, 20.42, 0.00458, 0.24548, -0.96933, -0.00104, 406, 100,
 19:48:14.653,e8:da:bf:c6:3e:4f, 2015-01-01 01:06:12.060, -2.326, -0.162, -0.632, 2.319, 9.033, 18.555, , , , , , , 179.522, -0.599, -93.378, -78.300, 13.100, -69.807, 20.42, 0.00717, 0.68362, -0.72971, -0.00116, 406, 100,
 19:48:14.654,e8:da:bf:c6:3e:4f, 2015-01-01 01:06:12.450, -0.985, -0.107, -0.974, 0.305, 8.728, 48.401, , , , , , , 179.544, -0.703, -93.73, -78.300, 13.100, -69.807, 20.42, 0.00717, 0.68362, -0.72971, -0.00116, 406, 100,
 19:48:14.654,e8:da:bf:c6:3e:4f, 2015-01-01 01:06:12.450, 0.024, -0.034, -1.082, 0.366, 3.357, 63.232, , , , , , , 179.55, -0.764, -94.323, -78.300, 13.100, -69.807, 20.42, 0.00717, 0.68362, -0.72971, -0.00116, 406, 100,
 19:48:14.654,e8:da:bf:c6:3e:4f, 2015-01-01 01:06:12.450, 0.855, 0.002, -1.169, 0, 5.493, 62.073, , , , , , , 179.561, -0.813, -94.944, -78.300, 13.100, -69.807, 20.42, 0.00717, 0.68362, -0.72971, -0.00116, 406, 100,
 19:48:14.670,e8:da:bf:c6:3e:4f, 2015-01-01 01:06:12.450, 1.994, 0.05, -1.332, -2.563, -3.967, 53.528, , , , , , , 179.55, -0.829, -95.554, -78.300, 13.100, -69.807, 20.42, 0.00717, 0.68362, -0.72971, -0.00116, 406, 100,
 19:48:14.670,e8:da:bf:c6:3e:4f, 2015-01-01 01:06:12.450, 1.895, 0.087, -1.116, -5.493, -2.991, 0.061, , , , , , , 179.511, -0.791, -95.812, -78.300, 13.100, -69.807, 20.42, 0.00717, 0.68362, -0.72971, -0.00116, 406, 100,
 19:48:14.670,e8:da:bf:c6:3e:4f, 2015-01-01 01:06:12.450, 1.413, 0.039, -0.612, -0.488, -3.357, -23.315, , , , , , , 179.473, -0.769, -95.652, -78.300, 13.100, -69.807, 20.42, 0.00717, 0.68362, -0.72971, -0.00116, 406, 100,
 19:48:14.670,e8:da:bf:c6:3e:4f, 2015-01-01 01:06:12.450, 0.521, 0.003, -0.439, 7.019, -1.648, -46.509, , , , , , , 179.511, -0.725, -95.306, -78.300, 13.100, -69.807, 20.42, 0.00717, 0.68362, -0.72971, -0.00116, 406, 100,
 19:48:14.670,e8:da:bf:c6:3e:4f, 2015-01-01 01:06:12.450, -0.237, 0.02, -0.877, 6.165, 0, -58.655, , , , , , , 179.577, -0.72, -94.746, -78.300, 13.100, -69.807, 20.42, 0.00717, 0.68362, -0.72971, -0.00116, 406, 100,
 19:48:14.670,e8:da:bf:c6:3e:4f, 2015-01-01 01:06:12.450, -0.552, 0.027, -1.439, -1.587, 0.549, -44.983, , , , , , , 179.594, -0.72, -94.219, -78.300, 13.100, -69.807, 20.42, 0.00717, 0.68362, -0.72971, -0.00116, 406, 100,
 19:48:14.670,e8:da:bf:c6:3e:4f, 2015-01-01 01:06:12.450, -0.974, 0.013, -1.475, -6.348, -5.249, -34.607, , , , , , , 179.544, -0.681, -93.856, -78.300, 13.100, -69.807, 20.42, 0.00717, 0.68362, -0.72971, -0.00116, 406, 100,
 19:48:14.671,e8:da:bf:c6:3e:4f, 2015-01-01 01:06:12.450, -1.57, -0.058, -1.082, -5.127, -1.221, -26.489, , , , , , , 179.478, -0.643, -93.521, -78.300, 13.100, -69.807, 20.42, 0.00717, 0.68362, -0.72971, -0.00116, 406, 100,
 19:48:14.671,e8:da:bf:c6:3e:4f, 2015-01-01 01:06:12.450, -1.458, -0.115, -0.627, 0.549, 1.648, 10.742, , , , , , , 179.456, -0.648, -93.466, -78.300, 13.100, -69.807, 20.42, 0.00717, 0.68362, -0.72971, -0.00116, 406, 100,
 19:48:14.671,e8:da:bf:c6:3e:4f, 2015-01-01 01:06:12.450, -1.047, -0.083, -0.593, 4.578, 4.639, 28.076, , , , , , , 179.489, -0.687, -93.68, -78.300, 13.100, -69.807, 20.42, 0.00717, 0.68362, -0.72971, -0.00116, 406, 100,
 19:48:14.671,e8:da:bf:c6:3e:4f, 2015-01-01 01:06:12.450, -0.368, -0.015, -0.871, 3.662, 3.845, 47.119, , , , , , , 179.539, -0.731, -94.07, -78.300, 13.100, -69.807, 20.42, 0.00717, 0.68362, -0.72971, -0.00116, 406, 100,
 19:48:14.671,e8:da:bf:c6:3e:4f, 2015-01-01 01:06:12.450, 0.13, 0.042, -1.206, 0.061, 1.038, 50.72, , , , , , , 179.561, -0.769, -94.576, -78.300, 13.100, -69.807, 20.42, 0.00717, 0.68362, -0.72971, -0.00116, 406, 100,
 19:48:14.671,e8:da:bf:c6:3e:4f, 2015-01-01 01:06:12.450, 0.266, 0.026, -1.238, -2.747, 1.953, 45.593, , , , , , , 179.544, -0.78, -95.059, -78.300, 13.100, -69.807, 20.42, 0.00717, 0.68362, -0.72971, -0.00116, 406, 100,
 19:48:14.671,e8:da:bf:c6:3e:4f, 2015-01-01 01:06:12.450, 0.553, -0.022, -1.059, -2.441, 2.625, 44.434, , , , , , , 179.522, -0.813, -95.504, -78.300, 13.100, -69.807, 20.42, 0.00717, 0.68362, -0.72971, -0.00116, 406, 100,
 19:48:14.672,e8:da:bf:c6:3e:4f, 2015-01-01 01:06:12.450, 1.241, -0.031, -0.929, -0.61, -3.845, 41.565, , , , , , , 179.511, -0.813, -95.955, -78.300, 13.100, -69.807, 20.42, 0.00717, 0.68362, -0.72971, -0.00116, 406, 100,
 19:48:14.672,e8:da:bf:c6:3e:4f, 2015-01-01 01:06:12.450, 1.301, 0.016, -0.883, 0.122, -1.526, 7.935, , , , , , , 179.517, -0.78, -96.196, -78.300, 13.100, -69.807, 20.42, 0.00717, 0.68362, -0.72971, -0.00116, 406, 100,
 19:48:14.688,e8:da:bf:c6:3e:4f, 2015-01-01 01:06:12.450, 1.16, 0.058, -0.912, 0, -1.404, -8.423, , , , , , , 179.517, -0.775, -96.169, -78.300, 13.100, -69.807, 20.42, 0.00717, 0.68362, -0.72971, -0.00116, 406, 100,
 19:48:14.688,e8:da:bf:c6:3e:4f, 2015-01-01 01:06:12.450, 0.709, 0.068, -0.877, 0.977, -2.075, -27.405, , , , , , , 179.517, -0.747, -95.993, -78.300, 13.100, -69.807, 20.42, 0.00717, 0.68362, -0.72971, -0.00116, 406, 100,
 19:48:14.688,e8:da:bf:c6:3e:4f, 2015-01-01 01:06:12.450, 0.119, 0.03, -0.847, 2.441, 0.122, -40.833, , , , , , , 179.533, -0.742, -95.63, -78.300, 13.100, -69.807, 20.42, 0.00717, 0.68362, -0.72971, -0.00116, 406, 100,
 19:48:14.688,e8:da:bf:c6:3e:4f, 2015-01-01 01:06:12.450, -0.184, -0.022, -0.96, 3.113, -0.244, -39.185, , , , , , , 179.561, -0.731, -95.229, -78.300, 13.100, -69.807, 20.42, 0.00717, 0.68362, -0.72971, -0.00116, 406, 100,
 19:48:14.798,e8:da:bf:c6:3e:4f, 2015-01-01 01:06:12.450, -0.42, -0.013, -1.209, -0.366, -2.686, -34.363, , , , , , , 179.572, -0.72, -94.861, -78.300, 13.100, -69.807, 20.42, 0.00717, 0.68362, -0.72971, -0.00116, 406, 100,
 19:48:14.799,e8:da:bf:c6:3e:4f, 2015-01-01 01:06:12.450, -1.26, 0.028, -1.28, -4.333, -4.028, -33.936, , , , , , , 179.544, -0.67, -94.526, -78.300, 13.100, -69.807, 20.42, 0.00717, 0.68362, -0.72971, -0.00116, 406, 100,
 19:48:14.799,e8:da:bf:c6:3e:4f, 2015-01-01 01:06:12.450, -2.015, 0.009, -1.133, -5.188, -4.517, -10.254, , , , , , , 179.489, -0.632, -94.285, -78.300, 13.100, -69.807, 20.42, 0.00717, 0.68362, -0.72971, -0.00116, 406, 100,
 19:48:14.799,e8:da:bf:c6:3e:4f, 2015-01-01 01:06:12.450, -2.407, -0.062, -0.729, -0.61, -2.441, 24.292, , , , , , , 179.462, -0.593, -94.384, -78.300, 13.100, -69.807, 20.42, 0.00717, 0.68362, -0.72971, -0.00116, 406, 100,
 19:48:14.824,e8:da:bf:c6:3e:4f, 2015-01-01 01:06:12.450, -2.206, -0.135, -0.6, 4.456, 2.625, 61.34, , , , , , , 179.489, -0.599, -94.823, -78.300, 13.100, -69.807, 20.42, 0.00717, 0.68362, -0.72971, -0.00116, 406, 100,
 19:48:14.824,e8:da:bf:c6:3e:4f, 2015-01-01 01:06:12.450, -1.548, -0.168, -0.902, 2.563, 5.249, 94.604, , , , , , , 179.539, -0.654, -95.636, -78.300, 13.100, -69.807, 20.42, 0.00717, 0.68362, -0.72971, -0.00116, 406, 100,
 19:48:14.824,e8:da:bf:c6:3e:4f, 2015-01-01 01:06:12.450, -0.704, -0.174, -1.129, -0.671, 3.967, 113.342, , , , , , , 179.55, -0.709, -96.696, -78.300, 13.100, -69.807, 20.42, 0.00717, 0.68362, -0.72971, -0.00116, 406, 100,
 19:48:14.824,e8:da:bf:c6:3e:4f, 2015-01-01 01:06:12.450, -0.127, -0.164, -1.026, 0.305, 3.662, 124.451, , , , , , , 179.561, -0.758, -97.899, -78.300, 13.100, -69.807, 20.42, 0.00717, 0.68362, -0.72971, -0.00116, 406, 100,
 19:48:14.824,e8:da:bf:c6:3e:4f, 2015-01-01 01:06:12.450, 0.118, -0.143, -1.044, -0.122, -0.061, 124.756, , , , , , , 179.577, -0.786, -99.152, -78.300, 13.100, -69.807, 20.42, 0.00717, 0.68362, -0.72971, -0.00116, 406, 100,
 19:48:14.824,e8:da:bf:c6:3e:4f, 2015-01-01 01:06:12.450, 0.178, -0.134, -1.105, -1.892, -0.732, 122.498, , , , , , , 179.577, -0.791, -100.388, -78.300, 13.100, -69.807, 20.42, 0.00717, 0.68362, -0.72971, -0.00116, 406, 100,
 19:48:14.824,e8:da:bf:c6:3e:4f, 2015-01-01 01:06:12.450, 0.145, -0.143, -1.025, -2.319, -0.61, 117.92, , , , , , , 179.566, -0.791, -101.596, -78.300, 13.100, -69.807, 20.42, 0.00717, 0.68362, -0.72971, -0.00116, 406, 100,
 19:48:14.824,e8:da:bf:c6:3e:4f, 2015-01-01 01:06:12.450, 0.052, -0.158, -0.848, -0.488, -0.793, 113.22, , , , , , , 179.561, -0.797, -102.744, -78.300, 13.100, -69.807, 20.42, 0.00717, 0.68362, -0.72971, -0.00116, 406, 100,
 19:48:14.849,e8:da:bf:c6:3e:4f, 2015-01-01 01:06:12.450, 0.045, -0.17, -0.791, 2.38, -0.977, 114.258, , , , , , , 179.588, -0.797, -103.887, -78.300, 13.100, -69.807, 20.42, 0.00717, 0.68362, -0.72971, -0.00116, 406, 100,
 19:48:14.849,e8:da:bf:c6:3e:4f, 2015-01-01 01:06:12.450, 0.052, -0.16, -1.004, 1.221, -0.793, 113.892, , , , , , , 179.621, -0.797, -105.029, -78.300, 13.100, -69.807, 20.42, 0.00717, 0.68362, -0.72971, -0.00116, 406, 100,
 19:48:14.849,e8:da:bf:c6:3e:4f, 2015-01-01 01:06:12.450, 0.037, -0.149, -1.202, -2.136, -0.793, 112.976, , , , , , , 179.626, -0.797, -106.166, -78.300, 13.100, -69.807, 20.42, 0.00717, 0.68362, -0.72971, -0.00116, 406, 100,
 19:48:14.850,e8:da:bf:c6:3e:4f, 2015-01-01 01:06:12.450, -0.012, -0.149, -1.073, -2.38, -4.089, 109.985, , , , , , , 179.61, -0.786, -107.287, -78.300, 13.100, -69.807, 20.42, 0.00717, 0.68362, -0.72971, -0.00116, 406, 100,
 19:48:14.881,e8:da:bf:c6:3e:4f, 2015-01-01 01:06:12.450, -0.63, -0.148, -0.851, -0.183, -4.089, 100.098, , , , , , , 179.61, -0.747, -108.342, -78.300, 13.100, -69.807, 20.42, 0.00665, 0.56299, -0.82639, -0.00125, 406, 100,
 19:48:14.882,e8:da:bf:c6:3e:4f, 2015-01-01 01:06:12.450, -0.93, -0.178, -0.829, 2.441, -0.488, 117.737, , , , , , , 179.632, -0.736, -109.391, -78.300, 13.100, -69.807, 20.42, 0.00665, 0.56299, -0.82639, -0.00125, 406, 100,
 19:48:14.882,e8:da:bf:c6:3e:4f, 2015-01-01 01:06:12.450, -0.785, -0.211, -1.002, -0.427, -0.427, 143.372, , , , , , , 179.654, -0.731, -110.753, -78.300, 13.100, -69.807, 20.42, 0.00665, 0.56299, -0.82639, -0.00125, 406, 100,
 19:48:14.883,e8:da:bf:c6:3e:4f, 2015-01-01 01:06:12.450, -0.687, -0.256, -1.11, -1.953, 1.953, 144.287, , , , , , , 179.654, -0.753, -112.17, -78.300, 13.100, -69.807, 20.42, 0.00665, 0.56299, -0.82639, -0.00125, 406, 100,
 19:48:15.036,e8:da:bf:c6:3e:4f, 2015-01-01 01:06:12.805, -0.197, -0.328, -0.953, -0.671, 2.075, 167.358, , , , , , , 179.654, -0.786, -113.758, -78.300, 13.100, -69.807, 20.42, 0.00665, 0.56299, -0.82639, -0.00125, 406, 100,
 19:48:15.036,e8:da:bf:c6:3e:4f, 2015-01-01 01:06:12.805, 0.157, -0.338, -0.895, 1.038, 0.305, 166.321, , , , , , , 179.681, -0.813, -115.439, -78.300, 13.100, -69.807, 20.42, 0.00665, 0.56299, -0.82639, -0.00125, 406, 100,
 19:48:15.037,e8:da:bf:c6:3e:4f, 2015-01-01 01:06:12.805, 0.226, -0.3, -1.044, -0.61, -0.977, 158.569, , , , , , , 179.703, -0.813, -117.065, -78.300, 13.100, -69.807, 20.42, 0.00665, 0.56299, -0.82639, -0.00125, 406, 100,
 19:48:15.037,e8:da:bf:c6:3e:4f, 2015-01-01 01:06:12.805, 0.107, -0.266, -1.097, -2.502, -0.671, 151.245, , , , , , , 179.698, -0.818, -118.608, -78.300, 13.100, -69.807, 20.42, 0.00665, 0.56299, -0.82639, -0.00125, 406, 100,
 19:48:15.063,e8:da:bf:c6:3e:4f, 2015-01-01 01:06:12.805, 0.054, -0.273, -0.96, -1.587, -0.732, 151.917, , , , , , , 179.692, -0.818, -120.125, -78.300, 13.100, -69.807, 20.42, 0.00665, 0.56299, -0.82639, -0.00125, 406, 100,
 19:48:15.063,e8:da:bf:c6:3e:4f, 2015-01-01 01:06:12.805, 0.042, -0.289, -0.832, 0.427, -0.916, 151.733, , , , , , , 179.709, -0.824, -121.646, -78.300, 13.100, -69.807, 20.42, 0.00665, 0.56299, -0.82639, -0.00125, 406, 100,
 19:48:15.063,e8:da:bf:c6:3e:4f, 2015-01-01 01:06:12.805, 0.051, -0.293, -0.878, 1.709, -1.099, 151.489, , , , , , , 179.736, -0.818, -123.162, -78.300, 13.100, -69.807, 20.42, 0.00665, 0.56299, -0.82639, -0.00125, 406, 100,
 19:48:15.063,e8:da:bf:c6:3e:4f, 2015-01-01 01:06:12.805, 0.064, -0.281, -1.085, -0.305, -0.732, 151.733, , , , , , , 179.764, -0.818, -124.684, -78.300, 13.100, -69.807, 20.42, 0.00665, 0.56299, -0.82639, -0.00125, 406, 100,
 19:48:15.063,e8:da:bf:c6:3e:4f, 2015-01-01 01:06:12.805, 0.044, -0.271, -1.158, -2.686, -2.441, 149.719, , , , , , , 179.764, -0.807, -126.194, -78.300, 13.100, -69.807, 20.42, 0.00665, 0.56299, -0.82639, -0.00125, 406, 100,
 19:48:15.063,e8:da:bf:c6:3e:4f, 2015-01-01 01:06:12.805, -0.079, -0.277, -0.979, -1.404, -4.089, 144.836, , , , , , , 179.753, -0.786, -127.672, -78.300, 13.100, -69.807, 20.42, 0.00665, 0.56299, -0.82639, -0.00125, 406, 100,
 19:48:15.064,e8:da:bf:c6:3e:4f, 2015-01-01 01:06:12.805, -0.725, -0.28, -0.847, 0.427, -2.991, 137.878, , , , , , , 179.764, -0.753, -129.073, -78.300, 13.100, -69.807, 20.42, 0.00665, 0.56299, -0.82639, -0.00125, 406, 100,
 19:48:15.064,e8:da:bf:c6:3e:4f, 2015-01-01 01:06:12.805, -0.593, -0.327, -0.922, 1.038, 0, 167.786, , , , , , , 179.791, -0.753, -130.578, -78.300, 13.100, -69.807, 20.42, 0.00665, 0.56299, -0.82639, -0.00125, 406, 100,
 19:48:15.064,e8:da:bf:c6:3e:4f, 2015-01-01 01:06:12.805, -0.396, -0.349, -1.049, -0.977, -1.221, 174.866, , , , , , , 179.808, -0.747, -132.341, -78.300, 13.100, -69.807, 20.42, 0.00665, 0.56299, -0.82639, -0.00125, 406, 100,
 19:48:15.064,e8:da:bf:c6:3e:4f, 2015-01-01 01:06:12.805, -0.301, -0.383, -1.049, -1.587, 0.671, 174.5, , , , , , , 179.813, -0.758, -134.061, -78.300, 13.100, -69.807, 20.42, 0.00665, 0.56299, -0.82639, -0.00125, 406, 100,
 19:48:15.065,e8:da:bf:c6:3e:4f, 2015-01-01 01:06:12.805, -0.086, -0.424, -0.947, -0.183, 0.305, 185.425, , , , , , , 179.824, -0.769, -135.884, -78.300, 13.100, -69.807, 20.42, 0.00665, 0.56299, -0.82639, -0.00125, 406, 100,
 19:48:15.065,e8:da:bf:c6:3e:4f, 2015-01-01 01:06:12.805, -0.052, -0.427, -0.95, 0.122, 0.366, 180.969, , , , , , , 179.841, -0.786, -137.719, -78.300, 13.100, -69.807, 20.42, 0.00665, 0.56299, -0.82639, -0.00125, 406, 100,
 19:48:15.081,e8:da:bf:c6:3e:4f, 2015-01-01 01:06:12.805, 0.014, -0.419, -1.053, -1.282, 0.122, 185.242, , , , , , , 179.857, -0.791, -139.548, -78.300, 13.100, -69.807, 20.42, 0.00665, 0.56299, -0.82639, -0.00125, 406, 100,
 19:48:15.081,e8:da:bf:c6:3e:4f, 2015-01-01 01:06:12.805, 0.084, -0.411, -1.047, -2.136, -0.732, 186.829, , , , , , , 179.857, -0.797, -141.416, -78.300, 13.100, -69.807, 20.42, 0.00665, 0.56299, -0.82639, -0.00125, 406, 100,
 19:48:15.081,e8:da:bf:c6:3e:4f, 2015-01-01 01:06:12.805, 0.111, -0.409, -0.924, -0.854, -1.16, 184.448, , , , , , , 179.863, -0.791, -143.273, -78.300, 13.100, -69.807, 20.42, 0.00665, 0.56299, -0.82639, -0.00125, 406, 100,
 19:48:15.081,e8:da:bf:c6:3e:4f, 2015-01-01 01:06:12.805, 0.101, -0.408, -0.861, 0.671, -1.343, 181.458, , , , , , , 179.879, -0.786, -145.102, -78.300, 13.100, -69.807, 20.42, 0.00665, 0.56299, -0.82639, -0.00125, 406, 100,
 19:48:15.113,e8:da:bf:c6:3e:4f, 2015-01-01 01:06:12.805, 0.075, -0.407, -0.963, 0.732, -1.404, 179.626, , , , , , , 179.912, -0.775, -146.909, -78.300, 13.100, -69.807, 20.42, 0.00665, 0.56299, -0.82639, -0.00125, 406, 100,
 19:48:15.113,e8:da:bf:c6:3e:4f, 2015-01-01 01:06:12.805, 0.056, -0.403, -1.112, -1.282, -1.038, 179.138, , , , , , , 179.923, -0.769, -148.705, -78.300, 13.100, -69.807, 20.42, 0.00665, 0.56299, -0.82639, -0.00125, 406, 100,
 19:48:15.113,e8:da:bf:c6:3e:4f, 2015-01-01 01:06:12.805, 0.023, -0.404, -1.089, -2.38, -1.221, 178.528, , , , , , , 179.923, -0.758, -150.496, -78.300, 13.100, -69.807, 20.42, 0.00665, 0.56299, -0.82639, -0.00125, 406, 100,
 19:48:15.113,e8:da:bf:c6:3e:4f, 2015-01-01 01:06:12.805, -0.012, -0.407, -0.925, -0.793, -2.258, 177.917, , , , , , , 179.923, -0.747, -152.281, -78.300, 13.100, -69.807, 20.42, 0.00665, 0.56299, -0.82639, -0.00125, 406, 100,
 19:48:15.289,e8:da:bf:c6:3e:4f, 2015-01-01 01:06:12.805, -0.058, -0.402, -0.859, 0.671, -2.258, 176.758, , , , , , , 179.945, -0.725, -154.056, -78.300, 13.100, -69.807, 20.42, 0.00665, 0.56299, -0.82639, -0.00125, 406, 100,
 19:48:15.289,e8:da:bf:c6:3e:4f, 2015-01-01 01:06:12.805, -0.16, -0.396, -0.955, 0.305, -0.671, 176.453, , , , , , , 179.967, -0.714, -155.819, -78.300, 13.100, -69.807, 20.42, 0.00351, 0.11118, -0.99374, -0.00031, 406, 100,
 19:48:15.289,e8:da:bf:c6:3e:4f, 2015-01-01 01:06:12.805, -0.062, -0.414, -1.068, -1.038, 0, 185.12, , , , , , , 179.978, -0.714, -157.632, -78.300, 13.100, -69.807, 20.42, 0.00351, 0.11118, -0.99374, -0.00031, 406, 100,
 19:48:15.289,e8:da:bf:c6:3e:4f, 2015-01-01 01:06:12.805, 0.067, -0.438, -1.041, -1.526, -0.488, 188.354, , , , , , , 179.984, -0.72, -159.51, -78.300, 13.100, -69.807, 20.42, 0.00351, 0.11118, -0.99374, -0.00031, 406, 100,
 19:48:15.305,e8:da:bf:c6:3e:4f, 2015-01-01 01:06:13.165, 0.092, -0.439, -0.941, -0.366, -0.977, 185.73, , , , , , , 179.989, -0.709, -161.384, -78.300, 13.100, -69.807, 20.42, 0.00351, 0.11118, -0.99374, -0.00031, 406, 100,
 19:48:15.305,e8:da:bf:c6:3e:4f, 2015-01-01 01:06:13.165, 0.794, -0.415, -0.88, 0.549, 6.958, 194.946, , , , , , , -179.989, -0.753, -163.268, -78.300, 13.100, -69.807, 20.42, 0.00351, 0.11118, -0.99374, -0.00031, 406, 100,
