Time,Device name,Chip Time(),Acceleration X(g),Acceleration Y(g),Acceleration Z(g),Angular velocity X(°/s),Angular velocity Y(°/s),Angular velocity Z(°/s),ShiftX(mm),ShiftY(mm),ShiftZ(mm),SpeedX(mm/s),SpeedY(mm/s),SpeedZ(mm/s),Angle X(°),Angle Y(°),Angle Z(°),Magnetic field X(ʯt),Magnetic field Y(ʯt),Magnetic field Z(ʯt),Temperature(℃),Quaternions 0(),Quaternions 1(),Quaternions 2(),Quaternions 3(),Raw power(),Power Percent(%)()
 19:42:24.483,e8:da:bf:c6:3e:4f, 2015-01-01 01:00:24.705, 0.01, 0.007, -0.98, 0, 0, -0.183, , , , , , , 179.769, -0.791, -128.925, -78.300, 13.100, -69.807, 20.52, 0.00635, 0.43103, -0.90225, -0.00119, 407, 100,
 19:42:24.484,e8:da:bf:c6:3e:4f, 2015-01-01 01:00:24.705, 0.01, 0.007, -0.981, 0, 0, -0.183, , , , , , , 179.769, -0.791, -128.925, -78.300, 13.100, -69.807, 20.52, 0.00635, 0.43103, -0.90225, -0.00119, 407, 100,
 19:42:24.484,e8:da:bf:c6:3e:4f, 2015-01-01 01:00:24.705, 0.01, 0.007, -0.981, 0, 0, -0.183, , , , , , , 179.769, -0.791, -128.925, -78.300, 13.100, -69.807, 20.52, 0.00635, 0.43103, -0.90225, -0.00119, 407, 100,
 19:42:24.484,e8:da:bf:c6:3e:4f, 2015-01-01 01:00:24.705, 0.009, 0.007, -0.981, 0, 0, -0.183, , , , , , , 179.769, -0.791, -128.925, -78.300, 13.100, -69.807, 20.52, 0.00635, 0.43103, -0.90225, -0.00119, 407, 100,
 19:42:24.484,e8:da:bf:c6:3e:4f, 2015-01-01 01:00:24.705, 0.01, 0.007, -0.981, 0, 0, -0.122, , , , , , , 179.769, -0.791, -128.925, -78.300, 13.100, -69.807, 20.52, 0.00635, 0.43103, -0.90225, -0.00119, 407, 100,
 19:42:24.485,e8:da:bf:c6:3e:4f, 2015-01-01 01:00:24.705, 0.01, 0.007, -0.981, 0, 0, -0.183, , , , , , , 179.769, -0.791, -128.925, -78.300, 13.100, -69.807, 20.52, 0.00635, 0.43103, -0.90225, -0.00119, 407, 100,
 19:42:24.485,e8:da:bf:c6:3e:4f, 2015-01-01 01:00:24.705, 0.01, 0.007, -0.982, 0, 0, -0.183, , , , , , , 179.769, -0.791, -128.925, -78.300, 13.100, -69.807, 20.52, 0.00635, 0.43103, -0.90225, -0.00119, 407, 100,
 19:42:24.485,e8:da:bf:c6:3e:4f, 2015-01-01 01:00:24.705, 0.01, 0.007, -0.98, 0, 0, -0.183, , , , , , , 179.769, -0.791, -128.925, -78.300, 13.100, -69.807, 20.52, 0.00635, 0.43103, -0.90225, -0.00119, 407, 100,
 19:42:24.565,e8:da:bf:c6:3e:4f, 2015-01-01 01:00:24.705, 0.01, 0.007, -0.98, 0, 0, -0.183, , , , , , , 179.769, -0.791, -128.925, -78.300, 13.100, -69.807, 20.52, 0.00635, 0.43103, -0.90225, -0.00119, 407, 100,
 19:42:24.565,e8:da:bf:c6:3e:4f, 2015-01-01 01:00:24.705, 0.01, 0.007, -0.98, 0, 0, -0.183, , , , , , , 179.769, -0.791, -128.925, -78.300, 13.100, -69.807, 20.52, 0.00635, 0.43103, -0.90225, -0.00119, 407, 100,
 19:42:24.565,e8:da:bf:c6:3e:4f, 2015-01-01 01:00:24.705, 0.011, 0.007, -0.981, 0, 0, -0.183, , , , , , , 179.769, -0.791, -128.925, -78.300, 13.100, -69.807, 20.52, 0.00635, 0.43103, -0.90225, -0.00119, 407, 100,
 19:42:24.566,e8:da:bf:c6:3e:4f, 2015-01-01 01:00:24.705, 0.01, 0.007, -0.981, 0, 0, -0.183, , , , , , , 179.769, -0.791, -128.925, -78.300, 13.100, -69.807, 20.52, 0.00635, 0.43103, -0.90225, -0.00119, 407, 100,
 19:42:24.582,e8:da:bf:c6:3e:4f, 2015-01-01 01:00:24.705, 0.01, 0.007, -0.981, 0, 0, -0.183, , , , , , , 179.769, -0.791, -128.925, -78.300, 13.100, -69.807, 20.52, 0.00635, 0.43103, -0.90225, -0.00119, 407, 100,
 19:42:24.582,e8:da:bf:c6:3e:4f, 2015-01-01 01:00:24.705, 0.01, 0.007, -0.98, 0, 0, -0.122, , , , , , , 179.769, -0.791, -128.925, -78.300, 13.100, -69.807, 20.52, 0.00635, 0.43103, -0.90225, -0.00119, 407, 100,
 19:42:24.582,e8:da:bf:c6:3e:4f, 2015-01-01 01:00:24.705, 0.01, 0.007, -0.981, 0, 0, -0.122, , , , , , , 179.769, -0.791, -128.925, -78.300, 13.100, -69.807, 20.52, 0.00635, 0.43103, -0.90225, -0.00119, 407, 100,
 19:42:24.582,e8:da:bf:c6:3e:4f, 2015-01-01 01:00:24.705, 0.011, 0.007, -0.981, 0, 0, -0.183, , , , , , , 179.769, -0.791, -128.925, -78.300, 13.100, -69.807, 20.52, 0.00635, 0.43103, -0.90225, -0.00119, 407, 100,
 19:42:24.745,e8:da:bf:c6:3e:4f, 2015-01-01 01:00:24.705, 0.011, 0.007, -0.981, 0, 0, -0.183, , , , , , , 179.769, -0.791, -128.925, -78.300, 13.100, -69.807, 20.52, 0.00635, 0.43103, -0.90225, -0.00119, 407, 100,
 19:42:24.789,e8:da:bf:c6:3e:4f, 2015-01-01 01:00:25.065, 0.011, 0.007, -0.981, 0, 0, -0.183, , , , , , , 179.769, -0.791, -128.925, -78.300, 13.100, -69.807, 20.52, 0.00635, 0.43103, -0.90225, -0.00116, 407, 100,
 19:42:24.789,e8:da:bf:c6:3e:4f, 2015-01-01 01:00:25.065, 0.01, 0.007, -0.981, 0, 0, -0.183, , , , , , , 179.769, -0.791, -128.925, -78.300, 13.100, -69.807, 20.52, 0.00635, 0.43103, -0.90225, -0.00116, 407, 100,
 19:42:24.790,e8:da:bf:c6:3e:4f, 2015-01-01 01:00:25.065, 0.009, 0.007, -0.981, 0, 0, -0.183, , , , , , , 179.769, -0.791, -128.925, -78.300, 13.100, -69.807, 20.52, 0.00635, 0.43103, -0.90225, -0.00116, 407, 100,
 19:42:24.806,e8:da:bf:c6:3e:4f, 2015-01-01 01:00:25.065, 0.01, 0.007, -0.981, 0, 0, -0.183, , , , , , , 179.769, -0.791, -128.925, -78.300, 13.100, -69.807, 20.52, 0.00635, 0.43103, -0.90225, -0.00116, 407, 100,
 19:42:24.806,e8:da:bf:c6:3e:4f, 2015-01-01 01:00:25.065, 0.01, 0.007, -0.98, 0, 0, -0.183, , , , , , , 179.769, -0.791, -128.925, -78.300, 13.100, -69.807, 20.52, 0.00635, 0.43103, -0.90225, -0.00116, 407, 100,
 19:42:24.806,e8:da:bf:c6:3e:4f, 2015-01-01 01:00:25.065, 0.01, 0.008, -0.98, 0, 0, -0.183, , , , , , , 179.769, -0.791, -128.925, -78.300, 13.100, -69.807, 20.52, 0.00635, 0.43103, -0.90225, -0.00116, 407, 100,
 19:42:24.806,e8:da:bf:c6:3e:4f, 2015-01-01 01:00:25.065, 0.011, 0.008, -0.98, 0, 0, -0.183, , , , , , , 179.769, -0.791, -128.925, -78.300, 13.100, -69.807, 20.52, 0.00635, 0.43103, -0.90225, -0.00116, 407, 100,
 19:42:24.806,e8:da:bf:c6:3e:4f, 2015-01-01 01:00:25.065, 0.01, 0.007, -0.98, 0, 0, -0.183, , , , , , , 179.769, -0.791, -128.925, -78.300, 13.100, -69.807, 20.52, 0.00635, 0.43103, -0.90225, -0.00116, 407, 100,
 19:42:24.806,e8:da:bf:c6:3e:4f, 2015-01-01 01:00:25.065, 0.01, 0.007, -0.981, 0, 0, -0.183, , , , , , , 179.769, -0.791, -128.925, -78.300, 13.100, -69.807, 20.52, 0.00635, 0.43103, -0.90225, -0.00116, 407, 100,
 19:42:24.806,e8:da:bf:c6:3e:4f, 2015-01-01 01:00:25.065, 0.01, 0.007, -0.981, 0, 0, -0.183, , , , , , , 179.769, -0.791, -128.925, -78.300, 13.100, -69.807, 20.52, 0.00635, 0.43103, -0.90225, -0.00116, 407, 100,
 19:42:24.806,e8:da:bf:c6:3e:4f, 2015-01-01 01:00:25.065, 0.01, 0.007, -0.98, 0, 0, -0.183, , , , , , , 179.769, -0.791, -128.925, -78.300, 13.100, -69.807, 20.52, 0.00635, 0.43103, -0.90225, -0.00116, 407, 100,
 19:42:24.806,e8:da:bf:c6:3e:4f, 2015-01-01 01:00:25.065, 0.01, 0.007, -0.981, 0, 0, -0.183, , , , , , , 179.769, -0.791, -128.925, -78.300, 13.100, -69.807, 20.52, 0.00635, 0.43103, -0.90225, -0.00116, 407, 100,
 19:42:24.807,e8:da:bf:c6:3e:4f, 2015-01-01 01:00:25.065, 0.01, 0.007, -0.981, 0, 0, -0.183, , , , , , , 179.769, -0.791, -128.925, -78.300, 13.100, -69.807, 20.52, 0.00635, 0.43103, -0.90225, -0.00116, 407, 100,
 19:42:24.807,e8:da:bf:c6:3e:4f, 2015-01-01 01:00:25.065, 0.01, 0.007, -0.98, 0, 0, -0.183, , , , , , , 179.769, -0.791, -128.925, -78.300, 13.100, -69.807, 20.52, 0.00635, 0.43103, -0.90225, -0.00116, 407, 100,
 19:42:24.807,e8:da:bf:c6:3e:4f, 2015-01-01 01:00:25.065, 0.01, 0.007, -0.981, 0, 0, -0.183, , , , , , , 179.769, -0.791, -128.925, -78.300, 13.100, -69.807, 20.52, 0.00635, 0.43103, -0.90225, -0.00116, 407, 100,
 19:42:24.807,e8:da:bf:c6:3e:4f, 2015-01-01 01:00:25.065, 0.009, 0.007, -0.981, 0, 0, -0.183, , , , , , , 179.769, -0.791, -128.925, -78.300, 13.100, -69.807, 20.52, 0.00635, 0.43103, -0.90225, -0.00116, 407, 100,
 19:42:24.807,e8:da:bf:c6:3e:4f, 2015-01-01 01:00:25.065, 0.01, 0.007, -0.981, 0, 0, -0.183, , , , , , , 179.769, -0.791, -128.925, -78.300, 13.100, -69.807, 20.52, 0.00635, 0.43103, -0.90225, -0.00116, 407, 100,
 19:42:24.807,e8:da:bf:c6:3e:4f, 2015-01-01 01:00:25.065, 0.01, 0.007, -0.982, 0, 0, -0.183, , , , , , , 179.769, -0.791, -128.925, -78.300, 13.100, -69.807, 20.52, 0.00635, 0.43103, -0.90225, -0.00116, 407, 100,
 19:42:24.807,e8:da:bf:c6:3e:4f, 2015-01-01 01:00:25.065, 0.011, 0.007, -0.981, 0, 0, -0.183, , , , , , , 179.769, -0.791, -128.925, -78.300, 13.100, -69.807, 20.52, 0.00635, 0.43103, -0.90225, -0.00116, 407, 100,
 19:42:24.807,e8:da:bf:c6:3e:4f, 2015-01-01 01:00:25.065, 0.011, 0.007, -0.981, 0, 0, -0.183, , , , , , , 179.769, -0.791, -128.925, -78.300, 13.100, -69.807, 20.52, 0.00635, 0.43103, -0.90225, -0.00116, 407, 100,
 19:42:24.807,e8:da:bf:c6:3e:4f, 2015-01-01 01:00:25.065, 0.01, 0.007, -0.981, 0, 0, -0.183, , , , , , , 179.769, -0.791, -128.925, -78.300, 13.100, -69.807, 20.52, 0.00635, 0.43103, -0.90225, -0.00116, 407, 100,
 19:42:24.807,e8:da:bf:c6:3e:4f, 2015-01-01 01:00:25.065, 0.01, 0.007, -0.981, 0, 0, -0.183, , , , , , , 179.769, -0.791, -128.925, -78.300, 13.100, -69.807, 20.52, 0.00635, 0.43103, -0.90225, -0.00116, 407, 100,
 19:42:24.807,e8:da:bf:c6:3e:4f, 2015-01-01 01:00:25.065, 0.011, 0.007, -0.982, 0, 0, -0.183, , , , , , , 179.769, -0.791, -128.925, -78.300, 13.100, -69.807, 20.52, 0.00635, 0.43103, -0.90225, -0.00116, 407, 100,
 19:42:24.848,e8:da:bf:c6:3e:4f, 2015-01-01 01:00:25.065, 0.01, 0.007, -0.981, 0, 0, -0.183, , , , , , , 179.769, -0.791, -128.925, -78.300, 13.100, -69.807, 20.52, 0.00635, 0.43103, -0.90225, -0.00116, 407, 100,
 19:42:24.849,e8:da:bf:c6:3e:4f, 2015-01-01 01:00:25.065, 0.01, 0.007, -0.98, 0, 0, -0.183, , , , , , , 179.769, -0.791, -128.925, -78.300, 13.100, -69.807, 20.52, 0.00635, 0.43103, -0.90225, -0.00116, 407, 100,
 19:42:24.849,e8:da:bf:c6:3e:4f, 2015-01-01 01:00:25.065, 0.01, 0.007, -0.981, 0, 0, -0.183, , , , , , , 179.769, -0.791, -128.925, -78.300, 13.100, -69.807, 20.52, 0.00635, 0.43103, -0.90225, -0.00116, 407, 100,
 19:42:24.849,e8:da:bf:c6:3e:4f, 2015-01-01 01:00:25.065, 0.008, 0.007, -0.98, 0, 0, -0.183, , , , , , , 179.769, -0.791, -128.925, -78.300, 13.100, -69.807, 20.52, 0.00635, 0.43103, -0.90225, -0.00116, 407, 100,
 19:42:24.990,e8:da:bf:c6:3e:4f, 2015-01-01 01:00:25.065, 0.01, 0.007, -0.98, 0, 0, -0.183, , , , , , , 179.769, -0.791, -128.925, -78.300, 13.100, -69.807, 20.52, 0.00635, 0.43103, -0.90225, -0.00116, 407, 100,
 19:42:25.206,e8:da:bf:c6:3e:4f, 2015-01-01 01:00:25.065, 0.01, 0.007, -0.981, 0, 0, -0.183, , , , , , , 179.769, -0.791, -128.925, -78.300, 13.100, -69.807, 20.52, 0.00635, 0.43103, -0.90225, -0.00116, 407, 100,
 19:42:25.217,e8:da:bf:c6:3e:4f, 2015-01-01 01:00:25.450, 0.01, 0.007, -0.981, 0, 0, -0.122, , , , , , , 179.769, -0.791, -128.925, -78.300, 13.100, -69.807, 20.52, 0.00635, 0.43103, -0.90225, -0.00116, 407, 100,
 19:42:25.217,e8:da:bf:c6:3e:4f, 2015-01-01 01:00:25.450, 0.011, 0.007, -0.981, 0, 0, -0.122, , , , , , , 179.769, -0.791, -128.925, -78.300, 13.100, -69.807, 20.52, 0.00635, 0.43103, -0.90225, -0.00116, 407, 100,
 19:42:25.218,e8:da:bf:c6:3e:4f, 2015-01-01 01:00:25.450, 0.01, 0.007, -0.981, 0, 0, -0.122, , , , , , , 179.769, -0.791, -128.925, -78.300, 13.100, -69.807, 20.52, 0.00635, 0.43103, -0.90225, -0.00116, 407, 100,
 19:42:25.218,e8:da:bf:c6:3e:4f, 2015-01-01 01:00:25.450, 0.01, 0.007, -0.98, 0, 0, -0.122, , , , , , , 179.769, -0.791, -128.925, -78.300, 13.100, -69.807, 20.52, 0.00635, 0.43103, -0.90225, -0.00116, 407, 100,
 19:42:25.218,e8:da:bf:c6:3e:4f, 2015-01-01 01:00:25.450, 0.01, 0.007, -0.981, 0, 0, -0.183, , , , , , , 179.769, -0.791, -128.925, -78.300, 13.100, -69.807, 20.52, 0.00635, 0.43103, -0.90225, -0.00116, 407, 100,
 19:42:25.218,e8:da:bf:c6:3e:4f, 2015-01-01 01:00:25.450, 0.008, 0.007, -0.981, 0, 0, -0.183, , , , , , , 179.769, -0.791, -128.925, -78.300, 13.100, -69.807, 20.52, 0.00635, 0.43103, -0.90225, -0.00116, 407, 100,
 19:42:25.234,e8:da:bf:c6:3e:4f, 2015-01-01 01:00:25.450, 0.009, 0.007, -0.981, 0, 0, -0.183, , , , , , , 179.769, -0.791, -128.925, -78.300, 13.100, -69.807, 20.52, 0.00635, 0.43103, -0.90225, -0.00116, 407, 100,
 19:42:25.234,e8:da:bf:c6:3e:4f, 2015-01-01 01:00:25.450, 0.01, 0.007, -0.981, 0, 0, -0.183, , , , , , , 179.769, -0.791, -128.925, -78.300, 13.100, -69.807, 20.52, 0.00635, 0.43103, -0.90225, -0.00116, 407, 100,
 19:42:25.234,e8:da:bf:c6:3e:4f, 2015-01-01 01:00:25.450, 0.009, 0.007, -0.981, 0, 0, -0.183, , , , , , , 179.769, -0.791, -128.925, -78.300, 13.100, -69.807, 20.52, 0.00635, 0.43103, -0.90225, -0.00116, 407, 100,
 19:42:25.234,e8:da:bf:c6:3e:4f, 2015-01-01 01:00:25.450, 0.01, 0.007, -0.981, 0, 0, -0.183, , , , , , , 179.769, -0.791, -128.925, -78.300, 13.100, -69.807, 20.52, 0.00635, 0.43103, -0.90225, -0.00116, 407, 100,
 19:42:25.234,e8:da:bf:c6:3e:4f, 2015-01-01 01:00:25.450, 0.01, 0.007, -0.981, 0, 0, -0.183, , , , , , , 179.769, -0.791, -128.925, -78.300, 13.100, -69.807, 20.52, 0.00635, 0.43103, -0.90225, -0.00116, 407, 100,
 19:42:25.235,e8:da:bf:c6:3e:4f, 2015-01-01 01:00:25.450, 0.01, 0.007, -0.981, 0, 0, -0.183, , , , , , , 179.769, -0.791, -128.925, -78.300, 13.100, -69.807, 20.52, 0.00635, 0.43103, -0.90225, -0.00116, 407, 100,
 19:42:25.235,e8:da:bf:c6:3e:4f, 2015-01-01 01:00:25.450, 0.01, 0.007, -0.981, 0, 0, -0.183, , , , , , , 179.769, -0.791, -128.925, -78.300, 13.100, -69.807, 20.52, 0.00635, 0.43103, -0.90225, -0.00116, 407, 100,
 19:42:25.235,e8:da:bf:c6:3e:4f, 2015-01-01 01:00:25.450, 0.009, 0.007, -0.982, 0, 0, -0.183, , , , , , , 179.769, -0.791, -128.925, -78.300, 13.100, -69.807, 20.52, 0.00635, 0.43103, -0.90225, -0.00116, 407, 100,
 19:42:25.235,e8:da:bf:c6:3e:4f, 2015-01-01 01:00:25.450, 0.01, 0.007, -0.981, 0, 0, -0.183, , , , , , , 179.769, -0.791, -128.925, -78.300, 13.100, -69.807, 20.52, 0.00635, 0.43103, -0.90225, -0.00116, 407, 100,
 19:42:25.235,e8:da:bf:c6:3e:4f, 2015-01-01 01:00:25.450, 0.01, 0.007, -0.981, 0, 0, -0.183, , , , , , , 179.769, -0.791, -128.925, -78.300, 13.100, -69.807, 20.52, 0.00635, 0.43103, -0.90225, -0.00116, 407, 100,
 19:42:25.235,e8:da:bf:c6:3e:4f, 2015-01-01 01:00:25.450, 0.01, 0.007, -0.981, 0, 0, -0.183, , , , , , , 179.769, -0.791, -128.925, -78.300, 13.100, -69.807, 20.52, 0.00635, 0.43103, -0.90225, -0.00116, 407, 100,
 19:42:25.235,e8:da:bf:c6:3e:4f, 2015-01-01 01:00:25.450, 0.01, 0.007, -0.98, 0, 0, -0.183, , , , , , , 179.769, -0.791, -128.925, -78.300, 13.100, -69.807, 20.52, 0.00635, 0.43103, -0.90225, -0.00116, 407, 100,
 19:42:25.235,e8:da:bf:c6:3e:4f, 2015-01-01 01:00:25.450, 0.01, 0.007, -0.981, 0, 0, -0.183, , , , , , , 179.769, -0.791, -128.925, -78.300, 13.100, -69.807, 20.52, 0.00635, 0.43103, -0.90225, -0.00116, 407, 100,
 19:42:25.236,e8:da:bf:c6:3e:4f, 2015-01-01 01:00:25.450, 0.009, 0.007, -0.981, 0, 0, -0.183, , , , , , , 179.769, -0.791, -128.925, -78.300, 13.100, -69.807, 20.52, 0.00635, 0.43103, -0.90225, -0.00116, 407, 100,
 19:42:25.236,e8:da:bf:c6:3e:4f, 2015-01-01 01:00:25.450, 0.01, 0.007, -0.981, 0, 0, -0.183, , , , , , , 179.769, -0.791, -128.925, -78.300, 13.100, -69.807, 20.52, 0.00635, 0.43103, -0.90225, -0.00116, 407, 100,
 19:42:25.236,e8:da:bf:c6:3e:4f, 2015-01-01 01:00:25.450, 0.01, 0.007, -0.981, 0, -0.061, -0.183, , , , , , , 179.769, -0.791, -128.925, -78.300, 13.100, -69.807, 20.52, 0.00635, 0.43103, -0.90225, -0.00116, 407, 100,
 19:42:25.236,e8:da:bf:c6:3e:4f, 2015-01-01 01:00:25.450, 0.01, 0.007, -0.981, 0, -0.061, -0.183, , , , , , , 179.769, -0.791, -128.925, -78.300, 13.100, -69.807, 20.52, 0.00635, 0.43103, -0.90225, -0.00116, 407, 100,
 19:42:25.236,e8:da:bf:c6:3e:4f, 2015-01-01 01:00:25.450, 0.01, 0.007, -0.981, 0, 0, -0.183, , , , , , , 179.769, -0.791, -128.925, -78.300, 13.100, -69.807, 20.52, 0.00635, 0.43103, -0.90225, -0.00116, 407, 100,
 19:42:25.237,e8:da:bf:c6:3e:4f, 2015-01-01 01:00:25.450, 0.009, 0.007, -0.981, 0, 0, -0.183, , , , , , , 179.769, -0.791, -128.925, -78.300, 13.100, -69.807, 20.52, 0.00635, 0.43103, -0.90225, -0.00116, 407, 100,
 19:42:25.237,e8:da:bf:c6:3e:4f, 2015-01-01 01:00:25.450, 0.01, 0.007, -0.981, 0, 0, -0.183, , , , , , , 179.769, -0.791, -128.925, -78.300, 13.100, -69.807, 20.52, 0.00635, 0.43103, -0.90225, -0.00116, 407, 100,
 19:42:25.237,e8:da:bf:c6:3e:4f, 2015-01-01 01:00:25.450, 0.01, 0.007, -0.981, 0, 0, -0.183, , , , , , , 179.769, -0.791, -128.925, -78.300, 13.100, -69.807, 20.52, 0.00635, 0.43103, -0.90225, -0.00116, 407, 100,
 19:42:25.237,e8:da:bf:c6:3e:4f, 2015-01-01 01:00:25.450, 0.009, 0.007, -0.981, 0, 0, -0.183, , , , , , , 179.769, -0.791, -128.925, -78.300, 13.100, -69.807, 20.52, 0.00635, 0.43103, -0.90225, -0.00116, 407, 100,
 19:42:25.237,e8:da:bf:c6:3e:4f, 2015-01-01 01:00:25.450, 0.01, 0.007, -0.98, 0, 0, -0.183, , , , , , , 179.769, -0.791, -128.925, -78.300, 13.100, -69.807, 20.52, 0.00635, 0.43103, -0.90225, -0.00116, 407, 100,
 19:42:25.237,e8:da:bf:c6:3e:4f, 2015-01-01 01:00:25.450, 0.01, 0.007, -0.981, 0, 0, -0.183, , , , , , , 179.769, -0.791, -128.925, -78.300, 13.100, -69.807, 20.52, 0.00635, 0.43103, -0.90225, -0.00116, 407, 100,
 19:42:25.237,e8:da:bf:c6:3e:4f, 2015-01-01 01:00:25.450, 0.009, 0.007, -0.981, 0, 0, -0.183, , , , , , , 179.769, -0.791, -128.925, -78.300, 13.100, -69.807, 20.52, 0.00635, 0.43103, -0.90225, -0.00116, 407, 100,
 19:42:25.237,e8:da:bf:c6:3e:4f, 2015-01-01 01:00:25.450, 0.009, 0.007, -0.981, 0, 0, -0.183, , , , , , , 179.769, -0.791, -128.925, -78.300, 13.100, -69.807, 20.52, 0.00635, 0.43103, -0.90225, -0.00116, 407, 100,
 19:42:25.238,e8:da:bf:c6:3e:4f, 2015-01-01 01:00:25.450, 0.01, 0.007, -0.981, 0, 0, -0.183, , , , , , , 179.769, -0.791, -128.925, -78.300, 13.100, -69.807, 20.52, 0.00635, 0.43103, -0.90225, -0.00116, 407, 100,
 19:42:25.238,e8:da:bf:c6:3e:4f, 2015-01-01 01:00:25.450, 0.01, 0.007, -0.981, 0, 0, -0.183, , , , , , , 179.769, -0.791, -128.925, -78.300, 13.100, -69.807, 20.52, 0.00635, 0.43103, -0.90225, -0.00116, 407, 100,
 19:42:25.263,e8:da:bf:c6:3e:4f, 2015-01-01 01:00:25.450, 0.01, 0.007, -0.981, 0, 0, -0.183, , , , , , , 179.769, -0.791, -128.925, -78.300, 13.100, -69.807, 20.52, 0.00635, 0.43103, -0.90225, -0.00116, 407, 100,
 19:42:25.263,e8:da:bf:c6:3e:4f, 2015-01-01 01:00:25.450, 0.01, 0.007, -0.981, 0, 0, -0.183, , , , , , , 179.769, -0.791, -128.925, -78.300, 13.100, -69.807, 20.52, 0.00635, 0.43103, -0.90225, -0.00116, 407, 100,
 19:42:25.263,e8:da:bf:c6:3e:4f, 2015-01-01 01:00:25.450, 0.01, 0.007, -0.981, 0, 0, -0.183, , , , , , , 179.769, -0.791, -128.925, -78.300, 13.100, -69.807, 20.52, 0.00635, 0.43103, -0.90225, -0.00116, 407, 100,
 19:42:25.263,e8:da:bf:c6:3e:4f, 2015-01-01 01:00:25.450, 0.01, 0.007, -0.98, 0, 0, -0.183, , , , , , , 179.769, -0.791, -128.925, -78.300, 13.100, -69.807, 20.52, 0.00635, 0.43103, -0.90225, -0.00116, 407, 100,
 19:42:25.279,e8:da:bf:c6:3e:4f, 2015-01-01 01:00:25.450, 0.01, 0.007, -0.98, 0, 0, -0.122, , , , , , , 179.769, -0.791, -128.925, -78.300, 13.100, -69.807, 20.52, 0.00635, 0.43103, -0.90225, -0.00116, 407, 100,
 19:42:25.279,e8:da:bf:c6:3e:4f, 2015-01-01 01:00:25.450, 0.01, 0.007, -0.98, 0, 0, -0.122, , , , , , , 179.769, -0.791, -128.925, -78.300, 13.100, -69.807, 20.52, 0.00635, 0.43103, -0.90225, -0.00116, 407, 100,
 19:42:25.279,e8:da:bf:c6:3e:4f, 2015-01-01 01:00:25.450, 0.01, 0.007, -0.981, 0, 0, -0.122, , , , , , , 179.769, -0.791, -128.925, -78.300, 13.100, -69.807, 20.52, 0.00635, 0.43103, -0.90225, -0.00116, 407, 100,
 19:42:25.279,e8:da:bf:c6:3e:4f, 2015-01-01 01:00:25.450, 0.01, 0.007, -0.981, 0, 0, -0.183, , , , , , , 179.769, -0.791, -128.925, -78.300, 13.100, -69.807, 20.52, 0.00635, 0.43103, -0.90225, -0.00116, 407, 100,
 19:42:25.320,e8:da:bf:c6:3e:4f, 2015-01-01 01:00:25.450, 0.011, 0.007, -0.981, 0, 0, -0.183, , , , , , , 179.769, -0.791, -128.925, -78.300, 13.100, -69.807, 20.52, 0.00635, 0.43103, -0.90225, -0.00116, 407, 100,
 19:42:25.320,e8:da:bf:c6:3e:4f, 2015-01-01 01:00:25.450, 0.01, 0.007, -0.981, 0, 0, -0.183, , , , , , , 179.769, -0.791, -128.925, -78.300, 13.100, -69.807, 20.52, 0.00635, 0.43103, -0.90225, -0.00116, 407, 100,
 19:42:25.320,e8:da:bf:c6:3e:4f, 2015-01-01 01:00:25.450, 0.01, 0.007, -0.981, 0, 0, -0.183, , , , , , , 179.769, -0.791, -128.925, -78.300, 13.100, -69.807, 20.52, 0.00635, 0.43103, -0.90225, -0.00116, 407, 100,
 19:42:25.320,e8:da:bf:c6:3e:4f, 2015-01-01 01:00:25.450, 0.01, 0.007, -0.981, 0, 0, -0.183, , , , , , , 179.769, -0.791, -128.925, -78.300, 13.100, -69.807, 20.52, 0.00635, 0.43103, -0.90225, -0.00116, 407, 100,
 19:42:25.452,e8:da:bf:c6:3e:4f, 2015-01-01 01:00:25.450, 0.011, 0.007, -0.981, 0, 0, -0.183, , , , , , , 179.769, -0.791, -128.925, -78.300, 13.100, -69.807, 20.52, 0.00635, 0.43103, -0.90225, -0.00116, 407, 100,
 19:42:25.551,e8:da:bf:c6:3e:4f, 2015-01-01 01:00:25.450, 0.011, 0.007, -0.981, 0, 0, -0.183, , , , , , , 179.769, -0.791, -128.925, -78.300, 13.100, -69.807, 20.52, 0.00635, 0.43103, -0.90225, -0.00116, 407, 100,
 19:42:25.552,e8:da:bf:c6:3e:4f, 2015-01-01 01:00:25.840, 0.009, 0.007, -0.981, 0, 0, -0.183, , , , , , , 179.769, -0.791, -128.925, -78.300, 13.100, -69.807, 20.52, 0.00635, 0.43103, -0.90225, -0.00116, 407, 100,
 19:42:25.552,e8:da:bf:c6:3e:4f, 2015-01-01 01:00:25.840, 0.008, 0.007, -0.981, 0, 0, -0.183, , , , , , , 179.769, -0.791, -128.925, -78.300, 13.100, -69.807, 20.52, 0.00635, 0.43103, -0.90225, -0.00116, 407, 100,
 19:42:25.568,e8:da:bf:c6:3e:4f, 2015-01-01 01:00:25.840, 0.009, 0.007, -0.981, 0, 0, -0.183, , , , , , , 179.769, -0.791, -128.925, -78.300, 13.100, -69.807, 20.52, 0.00635, 0.43103, -0.90225, -0.00116, 407, 100,
 19:42:25.568,e8:da:bf:c6:3e:4f, 2015-01-01 01:00:25.840, 0.01, 0.007, -0.981, 0, 0, -0.183, , , , , , , 179.769, -0.791, -128.925, -78.300, 13.100, -69.807, 20.52, 0.00635, 0.43103, -0.90225, -0.00116, 407, 100,
 19:42:25.568,e8:da:bf:c6:3e:4f, 2015-01-01 01:00:25.840, 0.01, 0.007, -0.981, 0, 0, -0.183, , , , , , , 179.769, -0.791, -128.925, -78.300, 13.100, -69.807, 20.52, 0.00635, 0.43103, -0.90225, -0.00116, 407, 100,
 19:42:25.568,e8:da:bf:c6:3e:4f, 2015-01-01 01:00:25.840, 0.01, 0.007, -0.981, 0, 0, -0.183, , , , , , , 179.769, -0.791, -128.925, -78.300, 13.100, -69.807, 20.52, 0.00635, 0.43103, -0.90225, -0.00116, 407, 100,
 19:42:25.568,e8:da:bf:c6:3e:4f, 2015-01-01 01:00:25.840, 0.01, 0.007, -0.981, 0, 0, -0.122, , , , , , , 179.769, -0.791, -128.925, -78.300, 13.100, -69.807, 20.52, 0.00635, 0.43103, -0.90225, -0.00116, 407, 100,
 19:42:25.569,e8:da:bf:c6:3e:4f, 2015-01-01 01:00:25.840, 0.01, 0.007, -0.981, 0, 0, -0.183, , , , , , , 179.769, -0.791, -128.925, -78.300, 13.100, -69.807, 20.52, 0.00635, 0.43103, -0.90225, -0.00116, 407, 100,
 19:42:25.569,e8:da:bf:c6:3e:4f, 2015-01-01 01:00:25.840, 0.01, 0.007, -0.981, 0, 0, -0.183, , , , , , , 179.769, -0.791, -128.925, -78.300, 13.100, -69.807, 20.52, 0.00635, 0.43103, -0.90225, -0.00116, 407, 100,
 19:42:25.569,e8:da:bf:c6:3e:4f, 2015-01-01 01:00:25.840, 0.01, 0.007, -0.981, 0, 0, -0.183, , , , , , , 179.769, -0.791, -128.925, -78.300, 13.100, -69.807, 20.52, 0.00635, 0.43103, -0.90225, -0.00116, 407, 100,
 19:42:25.569,e8:da:bf:c6:3e:4f, 2015-01-01 01:00:25.840, 0.011, 0.007, -0.981, 0, 0, -0.183, , , , , , , 179.769, -0.791, -128.925, -78.300, 13.100, -69.807, 20.52, 0.00635, 0.43103, -0.90225, -0.00116, 407, 100,
 19:42:25.569,e8:da:bf:c6:3e:4f, 2015-01-01 01:00:25.840, 0.01, 0.007, -0.981, 0, 0, -0.183, , , , , , , 179.769, -0.791, -128.925, -78.300, 13.100, -69.807, 20.52, 0.00635, 0.43103, -0.90225, -0.00116, 407, 100,
 19:42:25.569,e8:da:bf:c6:3e:4f, 2015-01-01 01:00:25.840, 0.011, 0.007, -0.981, 0, 0, -0.183, , , , , , , 179.769, -0.791, -128.925, -78.300, 13.100, -69.807, 20.52, 0.00635, 0.43103, -0.90225, -0.00116, 407, 100,
 19:42:25.569,e8:da:bf:c6:3e:4f, 2015-01-01 01:00:25.840, 0.011, 0.007, -0.981, 0, 0, -0.183, , , , , , , 179.769, -0.791, -128.925, -78.300, 13.100, -69.807, 20.52, 0.00635, 0.43103, -0.90225, -0.00116, 407, 100,
 19:42:25.577,e8:da:bf:c6:3e:4f, 2015-01-01 01:00:25.840, 0.01, 0.007, -0.981, 0, 0, -0.183, , , , , , , 179.769, -0.791, -128.925, -78.300, 13.100, -69.807, 20.52, 0.00635, 0.43103, -0.90225, -0.00116, 407, 100,
 19:42:25.577,e8:da:bf:c6:3e:4f, 2015-01-01 01:00:25.840, 0.01, 0.007, -0.98, 0, 0, -0.183, , , , , , , 179.769, -0.791, -128.925, -78.300, 13.100, -69.807, 20.52, 0.00635, 0.43103, -0.90225, -0.00116, 407, 100,
 19:42:25.578,e8:da:bf:c6:3e:4f, 2015-01-01 01:00:25.840, 0.01, 0.007, -0.98, 0, 0, -0.183, , , , , , , 179.769, -0.791, -128.925, -78.300, 13.100, -69.807, 20.52, 0.00635, 0.43103, -0.90225, -0.00116, 407, 100,
 19:42:25.578,e8:da:bf:c6:3e:4f, 2015-01-01 01:00:25.840, 0.01, 0.007, -0.98, 0, 0, -0.183, , , , , , , 179.769, -0.791, -128.925, -78.300, 13.100, -69.807, 20.52, 0.00635, 0.43103, -0.90225, -0.00116, 407, 100,
 19:42:25.578,e8:da:bf:c6:3e:4f, 2015-01-01 01:00:25.840, 0.011, 0.007, -0.981, 0, 0, -0.183, , , , , , , 179.769, -0.791, -128.925, -78.300, 13.100, -69.807, 20.52, 0.00635, 0.43103, -0.90225, -0.00116, 407, 100,
 19:42:25.578,e8:da:bf:c6:3e:4f, 2015-01-01 01:00:25.840, 0.009, 0.007, -0.981, 0, 0, -0.183, , , , , , , 179.769, -0.791, -128.925, -78.300, 13.100, -69.807, 20.52, 0.00635, 0.43103, -0.90225, -0.00116, 407, 100,
 19:42:25.578,e8:da:bf:c6:3e:4f, 2015-01-01 01:00:25.840, 0.009, 0.007, -0.98, 0, 0, -0.183, , , , , , , 179.769, -0.791, -128.925, -78.300, 13.100, -69.807, 20.52, 0.00635, 0.43103, -0.90225, -0.00116, 407, 100,
 19:42:25.578,e8:da:bf:c6:3e:4f, 2015-01-01 01:00:25.840, 0.01, 0.007, -0.98, 0, 0, -0.183, , , , , , , 179.769, -0.791, -128.925, -78.300, 13.100, -69.807, 20.52, 0.00635, 0.43103, -0.90225, -0.00116, 407, 100,
 19:42:25.776,e8:da:bf:c6:3e:4f, 2015-01-01 01:00:25.840, 0.01, 0.007, -0.981, 0, 0, -0.183, , , , , , , 179.769, -0.791, -128.925, -78.300, 13.100, -69.807, 20.52, 0.00635, 0.43103, -0.90225, -0.00116, 407, 100,
 19:42:25.956,e8:da:bf:c6:3e:4f, 2015-01-01 01:00:25.840, 0.01, 0.007, -0.981, 0, 0, -0.183, , , , , , , 179.769, -0.791, -128.925, -78.300, 13.100, -69.807, 20.52, 0.00635, 0.43103, -0.90225, -0.00119, 407, 100,
 19:42:25.972,e8:da:bf:c6:3e:4f, 2015-01-01 01:00:26.165, 0.01, 0.007, -0.981, 0, 0, -0.183, , , , , , , 179.769, -0.791, -128.925, -78.300, 13.100, -69.807, 20.52, 0.00635, 0.43103, -0.90225, -0.00119, 407, 100,
 19:42:25.972,e8:da:bf:c6:3e:4f, 2015-01-01 01:00:26.165, 0.009, 0.007, -0.981, 0, 0, -0.183, , , , , , , 179.769, -0.791, -128.925, -78.300, 13.100, -69.807, 20.52, 0.00635, 0.43103, -0.90225, -0.00119, 407, 100,
 19:42:25.973,e8:da:bf:c6:3e:4f, 2015-01-01 01:00:26.165, 0.01, 0.007, -0.981, 0, 0, -0.183, , , , , , , 179.769, -0.791, -128.925, -78.300, 13.100, -69.807, 20.52, 0.00635, 0.43103, -0.90225, -0.00119, 407, 100,
 19:42:25.973,e8:da:bf:c6:3e:4f, 2015-01-01 01:00:26.165, 0.01, 0.008, -0.981, 0, 0, -0.183, , , , , , , 179.769, -0.791, -128.925, -78.300, 13.100, -69.807, 20.52, 0.00635, 0.43103, -0.90225, -0.00119, 407, 100,
 19:42:25.973,e8:da:bf:c6:3e:4f, 2015-01-01 01:00:26.165, 0.011, 0.008, -0.981, 0, 0, -0.183, , , , , , , 179.769, -0.791, -128.925, -78.300, 13.100, -69.807, 20.52, 0.00635, 0.43103, -0.90225, -0.00119, 407, 100,
 19:42:25.973,e8:da:bf:c6:3e:4f, 2015-01-01 01:00:26.165, 0.011, 0.007, -0.98, 0, 0, -0.183, , , , , , , 179.769, -0.791, -128.925, -78.300, 13.100, -69.807, 20.52, 0.00635, 0.43103, -0.90225, -0.00119, 407, 100,
 19:42:26.011,e8:da:bf:c6:3e:4f, 2015-01-01 01:00:26.165, 0.01, 0.007, -0.98, 0, 0, -0.183, , , , , , , 179.769, -0.791, -128.925, -78.300, 13.100, -69.807, 20.52, 0.00635, 0.43103, -0.90225, -0.00119, 407, 100,
 19:42:26.011,e8:da:bf:c6:3e:4f, 2015-01-01 01:00:26.165, 0.01, 0.007, -0.981, 0, 0, -0.122, , , , , , , 179.769, -0.791, -128.925, -78.300, 13.100, -69.807, 20.52, 0.00635, 0.43103, -0.90225, -0.00119, 407, 100,
 19:42:26.011,e8:da:bf:c6:3e:4f, 2015-01-01 01:00:26.165, 0.01, 0.007, -0.981, 0, 0, -0.122, , , , , , , 179.769, -0.791, -128.925, -78.300, 13.100, -69.807, 20.52, 0.00635, 0.43103, -0.90225, -0.00119, 407, 100,
 19:42:26.012,e8:da:bf:c6:3e:4f, 2015-01-01 01:00:26.165, 0.01, 0.007, -0.982, 0, 0, -0.122, , , , , , , 179.769, -0.791, -128.925, -78.300, 13.100, -69.807, 20.52, 0.00635, 0.43103, -0.90225, -0.00119, 407, 100,
 19:42:26.012,e8:da:bf:c6:3e:4f, 2015-01-01 01:00:26.165, 0.01, 0.007, -0.981, 0, 0, -0.183, , , , , , , 179.769, -0.791, -128.925, -78.300, 13.100, -69.807, 20.52, 0.00635, 0.43103, -0.90225, -0.00119, 407, 100,
 19:42:26.012,e8:da:bf:c6:3e:4f, 2015-01-01 01:00:26.165, 0.01, 0.007, -0.98, 0, 0, -0.183, , , , , , , 179.769, -0.791, -128.925, -78.300, 13.100, -69.807, 20.52, 0.00635, 0.43103, -0.90225, -0.00119, 407, 100,
 19:42:26.012,e8:da:bf:c6:3e:4f, 2015-01-01 01:00:26.165, 0.01, 0.007, -0.981, 0, 0, -0.183, , , , , , , 179.769, -0.791, -128.925, -78.300, 13.100, -69.807, 20.52, 0.00635, 0.43103, -0.90225, -0.00119, 407, 100,
 19:42:26.012,e8:da:bf:c6:3e:4f, 2015-01-01 01:00:26.165, 0.01, 0.007, -0.981, 0, 0, -0.183, , , , , , , 179.769, -0.791, -128.925, -78.300, 13.100, -69.807, 20.52, 0.00635, 0.43103, -0.90225, -0.00119, 407, 100,
 19:42:26.012,e8:da:bf:c6:3e:4f, 2015-01-01 01:00:26.165, 0.01, 0.007, -0.981, 0, 0, -0.183, , , , , , , 179.769, -0.791, -128.925, -78.300, 13.100, -69.807, 20.52, 0.00635, 0.43103, -0.90225, -0.00119, 407, 100,
 19:42:26.012,e8:da:bf:c6:3e:4f, 2015-01-01 01:00:26.165, 0.01, 0.007, -0.981, 0, 0, -0.183, , , , , , , 179.769, -0.791, -128.925, -78.300, 13.100, -69.807, 20.52, 0.00635, 0.43103, -0.90225, -0.00119, 407, 100,
 19:42:26.012,e8:da:bf:c6:3e:4f, 2015-01-01 01:00:26.165, 0.01, 0.007, -0.981, 0, 0, -0.183, , , , , , , 179.769, -0.791, -128.925, -78.300, 13.100, -69.807, 20.52, 0.00635, 0.43103, -0.90225, -0.00119, 407, 100,
 19:42:26.013,e8:da:bf:c6:3e:4f, 2015-01-01 01:00:26.165, 0.01, 0.007, -0.981, 0, 0, -0.122, , , , , , , 179.769, -0.791, -128.925, -78.300, 13.100, -69.807, 20.52, 0.00635, 0.43103, -0.90225, -0.00119, 407, 100,
 19:42:26.013,e8:da:bf:c6:3e:4f, 2015-01-01 01:00:26.165, 0.01, 0.007, -0.981, 0, 0, -0.122, , , , , , , 179.769, -0.791, -128.925, -78.300, 13.100, -69.807, 20.52, 0.00635, 0.43103, -0.90225, -0.00119, 407, 100,
 19:42:26.013,e8:da:bf:c6:3e:4f, 2015-01-01 01:00:26.165, 0.01, 0.007, -0.98, 0, 0, -0.122, , , , , , , 179.769, -0.791, -128.925, -78.300, 13.100, -69.807, 20.52, 0.00635, 0.43103, -0.90225, -0.00119, 407, 100,
 19:42:26.013,e8:da:bf:c6:3e:4f, 2015-01-01 01:00:26.165, 0.01, 0.007, -0.981, 0, 0, -0.183, , , , , , , 179.769, -0.791, -128.925, -78.300, 13.100, -69.807, 20.52, 0.00635, 0.43103, -0.90225, -0.00119, 407, 100,
 19:42:26.013,e8:da:bf:c6:3e:4f, 2015-01-01 01:00:26.165, 0.01, 0.007, -0.98, 0, 0, -0.183, , , , , , , 179.769, -0.791, -128.925, -78.300, 13.100, -69.807, 20.52, 0.00635, 0.43103, -0.90225, -0.00119, 407, 100,
 19:42:26.013,e8:da:bf:c6:3e:4f, 2015-01-01 01:00:26.165, 0.01, 0.007, -0.981, 0, 0, -0.183, , , , , , , 179.769, -0.791, -128.925, -78.300, 13.100, -69.807, 20.52, 0.00635, 0.43103, -0.90225, -0.00119, 407, 100,
 19:42:26.013,e8:da:bf:c6:3e:4f, 2015-01-01 01:00:26.165, 0.01, 0.007, -0.982, 0, 0, -0.183, , , , , , , 179.769, -0.791, -128.925, -78.300, 13.100, -69.807, 20.52, 0.00635, 0.43103, -0.90225, -0.00119, 407, 100,
 19:42:26.013,e8:da:bf:c6:3e:4f, 2015-01-01 01:00:26.165, 0.01, 0.008, -0.981, 0, 0, -0.183, , , , , , , 179.769, -0.791, -128.925, -78.300, 13.100, -69.807, 20.52, 0.00635, 0.43103, -0.90225, -0.00119, 407, 100,
 19:42:26.013,e8:da:bf:c6:3e:4f, 2015-01-01 01:00:26.165, 0.01, 0.007, -0.98, 0, 0, -0.183, , , , , , , 179.769, -0.791, -128.925, -78.300, 13.100, -69.807, 20.52, 0.00635, 0.43103, -0.90225, -0.00119, 407, 100,
 19:42:26.013,e8:da:bf:c6:3e:4f, 2015-01-01 01:00:26.165, 0.01, 0.007, -0.981, 0, 0, -0.183, , , , , , , 179.769, -0.791, -128.925, -78.300, 13.100, -69.807, 20.52, 0.00635, 0.43103, -0.90225, -0.00119, 407, 100,
 19:42:26.014,e8:da:bf:c6:3e:4f, 2015-01-01 01:00:26.165, 0.009, 0.007, -0.981, 0, 0, -0.183, , , , , , , 179.769, -0.791, -128.925, -78.300, 13.100, -69.807, 20.52, 0.00635, 0.43103, -0.90225, -0.00119, 407, 100,
 19:42:26.014,e8:da:bf:c6:3e:4f, 2015-01-01 01:00:26.165, 0.01, 0.007, -0.982, 0, 0, -0.183, , , , , , , 179.769, -0.791, -128.925, -78.300, 13.100, -69.807, 20.52, 0.00635, 0.43103, -0.90225, -0.00119, 407, 100,
 19:42:26.014,e8:da:bf:c6:3e:4f, 2015-01-01 01:00:26.165, 0.025, 0.007, -0.982, 0, 0.061, -0.122, , , , , , , 179.769, -0.791, -128.925, -78.300, 13.100, -69.807, 20.52, 0.00635, 0.43103, -0.90225, -0.00119, 407, 100,
 19:42:26.014,e8:da:bf:c6:3e:4f, 2015-01-01 01:00:26.165, 0.112, 0.005, -0.977, 0, 2.136, 0.732, , , , , , , 179.769, -0.791, -128.925, -78.300, 13.100, -69.807, 20.52, 0.00635, 0.43103, -0.90225, -0.00119, 407, 100,
 19:42:26.014,e8:da:bf:c6:3e:4f, 2015-01-01 01:00:26.165, 0.619, 0.003, -0.985, 0.183, 3.723, 6.592, , , , , , , 179.769, -0.824, -128.963, -78.300, 13.100, -69.807, 20.52, 0.00635, 0.43103, -0.90225, -0.00119, 407, 100,
 19:42:26.014,e8:da:bf:c6:3e:4f, 2015-01-01 01:00:26.165, 1.437, 0.024, -1.033, 0.183, -1.404, 0.366, , , , , , , 179.775, -0.835, -129.023, -78.300, 13.100, -69.807, 20.52, 0.00635, 0.43103, -0.90225, -0.00119, 407, 100,
 19:42:26.014,e8:da:bf:c6:3e:4f, 2015-01-01 01:00:26.165, 1.979, 0.042, -1.043, -1.404, 1.709, -30.396, , , , , , , 179.764, -0.835, -128.859, -78.300, 13.100, -69.807, 20.52, 0.00635, 0.43103, -0.90225, -0.00119, 407, 100,
 19:42:26.014,e8:da:bf:c6:3e:4f, 2015-01-01 01:00:26.165, 2.245, 0.016, -0.96, -0.122, -1.038, -59.387, , , , , , , 179.747, -0.84, -128.414, -78.300, 13.100, -69.807, 20.52, 0.00635, 0.43103, -0.90225, -0.00119, 407, 100,
 19:42:26.014,e8:da:bf:c6:3e:4f, 2015-01-01 01:00:26.165, 2.07, -0.028, -0.88, 0.732, -1.343, -95.703, , , , , , , 179.742, -0.824, -127.617, -78.300, 13.100, -69.807, 20.52, 0.00635, 0.43103, -0.90225, -0.00119, 407, 100,
 19:42:26.015,e8:da:bf:c6:3e:4f, 2015-01-01 01:00:26.165, 1.584, -0.092, -0.905, 1.221, -3.601, -124.268, , , , , , , 179.742, -0.786, -126.502, -78.300, 13.100, -69.807, 20.52, 0.00635, 0.43103, -0.90225, -0.00119, 407, 100,
 19:42:26.015,e8:da:bf:c6:3e:4f, 2015-01-01 01:00:26.165, 1.005, -0.166, -0.978, 0.427, -2.136, -146.423, , , , , , , 179.736, -0.742, -125.129, -78.300, 13.100, -69.807, 20.52, 0.00635, 0.43103, -0.90225, -0.00119, 407, 100,
 19:42:26.044,e8:da:bf:c6:3e:4f, 2015-01-01 01:00:26.165, 0.541, -0.237, -1.025, 0.305, -0.793, -158.081, , , , , , , 179.725, -0.714, -123.602, -78.300, 13.100, -69.807, 20.52, 0.00635, 0.43103, -0.90225, -0.00119, 407, 100,
 19:42:26.044,e8:da:bf:c6:3e:4f, 2015-01-01 01:00:26.165, 0.122, -0.294, -0.973, 0.427, 3.174, -167.053, , , , , , , 179.714, -0.725, -121.965, -78.300, 13.100, -69.807, 20.52, 0.00635, 0.43103, -0.90225, -0.00119, 407, 100,
 19:42:26.044,e8:da:bf:c6:3e:4f, 2015-01-01 01:00:26.165, -0.083, -0.328, -0.925, 1.77, 1.282, -165.039, , , , , , , 179.709, -0.731, -120.3, -78.300, 13.100, -69.807, 20.52, 0.00635, 0.43103, -0.90225, -0.00119, 407, 100,
 19:42:26.044,e8:da:bf:c6:3e:4f, 2015-01-01 01:00:26.165, -0.108, -0.326, -0.997, 1.404, 0.732, -161.072, , , , , , , 179.714, -0.725, -118.674, -78.300, 13.100, -69.807, 20.52, 0.00635, 0.43103, -0.90225, -0.00119, 407, 100,
 19:42:26.060,e8:da:bf:c6:3e:4f, 2015-01-01 01:00:26.165, -0.067, -0.305, -1.091, -0.305, 0.793, -158.325, , , , , , , 179.703, -0.72, -117.081, -78.300, 13.100, -69.807, 20.52, 0.00635, 0.43103, -0.90225, -0.00119, 407, 100,
 19:42:26.060,e8:da:bf:c6:3e:4f, 2015-01-01 01:00:26.165, -0.052, -0.301, -1.036, -0.854, 0.916, -157.715, , , , , , , 179.681, -0.72, -115.505, -78.300, 13.100, -69.807, 20.52, 0.00635, 0.43103, -0.90225, -0.00119, 407, 100,
 19:42:26.060,e8:da:bf:c6:3e:4f, 2015-01-01 01:00:26.165, -0.065, -0.308, -0.902, 0.671, 0.244, -157.715, , , , , , , 179.665, -0.709, -113.934, -78.300, 13.100, -69.807, 20.52, 0.00635, 0.43103, -0.90225, -0.00119, 407, 100,
 19:42:26.060,e8:da:bf:c6:3e:4f, 2015-01-01 01:00:26.165, -0.215, -0.301, -0.874, 2.014, -1.099, -160.4, , , , , , , 179.665, -0.692, -112.346, -78.300, 13.100, -69.807, 20.52, 0.00635, 0.43103, -0.90225, -0.00119, 407, 100,
 19:42:26.103,e8:da:bf:c6:3e:4f, 2015-01-01 01:00:26.165, -1.155, -0.273, -1.001, 0.793, -3.662, -167.358, , , , , , , 179.665, -0.648, -110.698, -78.300, 13.100, -69.807, 20.52, 0.00635, 0.43103, -0.90225, -0.00119, 407, 100,
 19:42:26.103,e8:da:bf:c6:3e:4f, 2015-01-01 01:00:26.165, -2.041, -0.258, -1.161, -0.671, -4.883, -142.09, , , , , , , 179.659, -0.599, -109.133, -78.300, 13.100, -69.807, 20.52, 0.00635, 0.43103, -0.90225, -0.00119, 407, 100,
 19:42:26.103,e8:da:bf:c6:3e:4f, 2015-01-01 01:00:26.165, -3.111, -0.219, -1.167, -2.808, -7.751, -111.267, , , , , , , 179.626, -0.516, -107.902, -78.300, 13.100, -69.807, 20.52, 0.00635, 0.43103, -0.90225, -0.00119, 407, 100,
 19:42:26.104,e8:da:bf:c6:3e:4f, 2015-01-01 01:00:26.165, -4.231, -0.205, -0.924, 1.648, -5.554, -70.19, , , , , , , 179.621, -0.439, -106.979, -78.300, 13.100, -69.807, 20.52, 0.00635, 0.43103, -0.90225, -0.00119, 407, 100,
 19:42:26.127,e8:da:bf:c6:3e:4f, 2015-01-01 01:00:26.165, -4.454, -0.204, -0.708, 1.892, -0.977, 7.141, , , , , , , 179.637, -0.406, -106.727, -78.300, 13.100, -69.807, 20.52, 0.00568, 0.58133, -0.8136, -0.00189, 407, 100,
 19:42:26.127,e8:da:bf:c6:3e:4f, 2015-01-01 01:00:26.165, -3.798, -0.201, -0.853, 2.136, 6.165, 71.655, , , , , , , 179.659, -0.439, -107.144, -78.300, 13.100, -69.807, 20.52, 0.00568, 0.58133, -0.8136, -0.00189, 407, 100,
 19:42:26.128,e8:da:bf:c6:3e:4f, 2015-01-01 01:00:26.165, -2.407, -0.22, -1.082, -3.052, 9.644, 129.089, , , , , , , 179.665, -0.538, -108.204, -78.300, 13.100, -69.807, 20.52, 0.00568, 0.58133, -0.8136, -0.00189, 407, 100,
 19:42:26.128,e8:da:bf:c6:3e:4f, 2015-01-01 01:00:26.165, -1.042, -0.273, -1.056, -4.272, 8.606, 156.067, , , , , , , 179.632, -0.648, -109.66, -78.300, 13.100, -69.807, 20.52, 0.00568, 0.58133, -0.8136, -0.00189, 407, 100,
 19:42:26.249,e8:da:bf:c6:3e:4f, 2015-01-01 01:00:26.525, -0.088, -0.325, -0.763, 0.366, 6.287, 170.349, , , , , , , 179.621, -0.736, -111.313, -78.300, 13.100, -69.807, 20.52, 0.00568, 0.58133, -0.8136, -0.00189, 407, 100,
 19:42:26.275,e8:da:bf:c6:3e:4f, 2015-01-01 01:00:26.525, 0.376, -0.318, -0.804, 4.089, 1.16, 169.861, , , , , , , 179.67, -0.775, -113.022, -78.300, 13.100, -69.807, 20.52, 0.00568, 0.58133, -0.8136, -0.00189, 407, 100,
 19:42:26.275,e8:da:bf:c6:3e:4f, 2015-01-01 01:00:26.525, 1.096, -0.269, -1.246, -0.427, 1.221, 170.105, , , , , , , 179.709, -0.813, -114.725, -78.300, 13.100, -69.807, 20.52, 0.00568, 0.58133, -0.8136, -0.00189, 407, 100,
 19:42:26.275,e8:da:bf:c6:3e:4f, 2015-01-01 01:00:26.525, 1.417, -0.197, -1.426, -5.554, -4.761, 145.508, , , , , , , 179.692, -0.797, -116.329, -78.300, 13.100, -69.807, 20.52, 0.00568, 0.58133, -0.8136, -0.00189, 407, 100,
 19:42:26.291,e8:da:bf:c6:3e:4f, 2015-01-01 01:00:26.525, 1.057, -0.17, -0.937, -4.578, -3.113, 111.389, , , , , , , 179.643, -0.769, -117.565, -78.300, 13.100, -69.807, 20.52, 0.00568, 0.58133, -0.8136, -0.00189, 407, 100,
 19:42:26.291,e8:da:bf:c6:3e:4f, 2015-01-01 01:00:26.525, 0.545, -0.186, -0.491, 3.479, -2.014, 101.135, , , , , , , 179.654, -0.742, -118.625, -78.300, 13.100, -69.807, 20.52, 0.00568, 0.58133, -0.8136, -0.00189, 407, 100,
 19:42:26.291,e8:da:bf:c6:3e:4f, 2015-01-01 01:00:26.525, 0.071, -0.144, -0.628, 6.653, -0.183, 91.98, , , , , , , 179.72, -0.758, -119.581, -78.300, 13.100, -69.807, 20.52, 0.00568, 0.58133, -0.8136, -0.00189, 407, 100,
 19:42:26.291,e8:da:bf:c6:3e:4f, 2015-01-01 01:00:26.525, -0.107, -0.083, -1.237, 0.732, -1.953, 93.628, , , , , , , 179.769, -0.758, -120.504, -78.300, 13.100, -69.807, 20.52, 0.00568, 0.58133, -0.8136, -0.00189, 407, 100,
 19:42:26.291,e8:da:bf:c6:3e:4f, 2015-01-01 01:00:26.525, -0.848, -0.058, -1.495, -5.981, -7.08, 86.548, , , , , , , 179.747, -0.709, -121.426, -78.300, 13.100, -69.807, 20.52, 0.00568, 0.58133, -0.8136, -0.00189, 407, 100,
 19:42:26.291,e8:da:bf:c6:3e:4f, 2015-01-01 01:00:26.525, -1.58, -0.147, -1.135, -3.174, -3.174, 100.464, , , , , , , 179.703, -0.67, -122.305, -78.300, 13.100, -69.807, 20.52, 0.00568, 0.58133, -0.8136, -0.00189, 407, 100,
 19:42:26.307,e8:da:bf:c6:3e:4f, 2015-01-01 01:00:26.525, -1.604, -0.284, -0.667, -1.404, -4.028, 143.066, , , , , , , 179.692, -0.648, -123.585, -78.300, 13.100, -69.807, 20.52, 0.00568, 0.58133, -0.8136, -0.00189, 407, 100,
 19:42:26.308,e8:da:bf:c6:3e:4f, 2015-01-01 01:00:26.525, -1.577, -0.354, -0.631, 5.066, 1.831, 154.297, , , , , , , 179.725, -0.648, -125.063, -78.300, 13.100, -69.807, 20.52, 0.00568, 0.58133, -0.8136, -0.00189, 407, 100,
 19:42:26.334,e8:da:bf:c6:3e:4f, 2015-01-01 01:00:26.525, -0.817, -0.4, -0.988, 0.488, 2.93, 194.214, , , , , , , 179.775, -0.698, -126.854, -78.300, 13.100, -69.807, 20.52, 0.00568, 0.58133, -0.8136, -0.00189, 407, 100,
 19:42:26.334,e8:da:bf:c6:3e:4f, 2015-01-01 01:00:26.525, -0.359, -0.411, -1.22, -2.563, 4.211, 193.726, , , , , , , 179.78, -0.747, -128.804, -78.300, 13.100, -69.807, 20.52, 0.00568, 0.58133, -0.8136, -0.00189, 407, 100,
 19:42:26.334,e8:da:bf:c6:3e:4f, 2015-01-01 01:00:26.525, -0.014, -0.459, -1.106, -2.625, 2.38, 203.003, , , , , , , 179.769, -0.802, -130.787, -78.300, 13.100, -69.807, 20.52, 0.00568, 0.58133, -0.8136, -0.00189, 407, 100,
 19:42:26.334,e8:da:bf:c6:3e:4f, 2015-01-01 01:00:26.525, 0.212, -0.506, -0.899, -0.549, -0.916, 204.651, , , , , , , 179.775, -0.818, -132.841, -78.300, 13.100, -69.807, 20.52, 0.00568, 0.58133, -0.8136, -0.00189, 407, 100,
 19:42:26.351,e8:da:bf:c6:3e:4f, 2015-01-01 01:00:26.525, 0.307, -0.505, -0.859, 0.916, 0.854, 198.12, , , , , , , 179.802, -0.829, -134.857, -78.300, 13.100, -69.807, 20.52, 0.00568, 0.58133, -0.8136, -0.00189, 407, 100,
 19:42:26.351,e8:da:bf:c6:3e:4f, 2015-01-01 01:00:26.525, 0.453, -0.466, -1.001, 0.305, 0.061, 194.458, , , , , , , 179.835, -0.851, -136.818, -78.300, 13.100, -69.807, 20.52, 0.00568, 0.58133, -0.8136, -0.00189, 407, 100,
 19:42:26.351,e8:da:bf:c6:3e:4f, 2015-01-01 01:00:26.525, 0.575, -0.409, -1.146, -2.197, -2.869, 187.073, , , , , , , 179.846, -0.846, -138.73, -78.300, 13.100, -69.807, 20.52, 0.00568, 0.58133, -0.8136, -0.00189, 407, 100,
 19:42:26.351,e8:da:bf:c6:3e:4f, 2015-01-01 01:00:26.525, 0.472, -0.377, -1.05, -2.808, -1.892, 174.927, , , , , , , 179.835, -0.835, -140.532, -78.300, 13.100, -69.807, 20.52, 0.00568, 0.58133, -0.8136, -0.00189, 407, 100,
 19:42:26.472,e8:da:bf:c6:3e:4f, 2015-01-01 01:00:26.525, 0.331, -0.379, -0.833, 0, -1.282, 169.739, , , , , , , 179.841, -0.829, -142.251, -78.300, 13.100, -69.807, 20.52, 0.00568, 0.58133, -0.8136, -0.00189, 407, 100,
 19:42:26.542,e8:da:bf:c6:3e:4f, 2015-01-01 01:00:26.525, 0.147, -0.366, -0.843, 1.587, -2.808, 163.574, , , , , , , 179.874, -0.818, -143.921, -78.300, 13.100, -69.807, 20.52, 0.00568, 0.58133, -0.8136, -0.00189, 407, 100,
 19:42:26.543,e8:da:bf:c6:3e:4f, 2015-01-01 01:00:26.880, 0.014, -0.336, -1.052, -0.183, -1.282, 161.865, , , , , , , 179.901, -0.807, -145.541, -78.300, 13.100, -69.807, 20.52, 0.00592, 0.13528, -0.99075, -0.00034, 407, 100,
 19:42:26.543,e8:da:bf:c6:3e:4f, 2015-01-01 01:00:26.880, 0.002, -0.323, -1.163, -2.441, -1.587, 164.734, , , , , , , 179.901, -0.802, -147.178, -78.300, 13.100, -69.807, 20.52, 0.00592, 0.13528, -0.99075, -0.00034, 407, 100,
 19:42:26.559,e8:da:bf:c6:3e:4f, 2015-01-01 01:00:26.880, -0.003, -0.332, -1.028, -2.441, -2.441, 163.696, , , , , , , 179.89, -0.791, -148.826, -78.300, 13.100, -69.807, 20.52, 0.00592, 0.13528, -0.99075, -0.00034, 407, 100,
 19:42:26.559,e8:da:bf:c6:3e:4f, 2015-01-01 01:00:26.880, -0.079, -0.349, -0.819, 0.427, -3.418, 160.095, , , , , , , 179.901, -0.769, -150.447, -78.300, 13.100, -69.807, 20.52, 0.00592, 0.13528, -0.99075, -0.00034, 407, 100,
 19:42:26.559,e8:da:bf:c6:3e:4f, 2015-01-01 01:00:26.880, -0.487, -0.349, -0.85, 1.709, -2.197, 156.372, , , , , , , 179.929, -0.747, -152.023, -78.300, 13.100, -69.807, 20.52, 0.00592, 0.13528, -0.99075, -0.00034, 407, 100,
 19:42:26.559,e8:da:bf:c6:3e:4f, 2015-01-01 01:00:26.880, -0.424, -0.371, -1.083, -0.366, 0, 176.025, , , , , , , 179.956, -0.747, -153.671, -78.300, 13.100, -69.807, 20.52, 0.00592, 0.13528, -0.99075, -0.00034, 407, 100,
 19:42:26.559,e8:da:bf:c6:3e:4f, 2015-01-01 01:00:26.880, -0.217, -0.398, -1.107, -2.258, 1.709, 184.082, , , , , , , 179.956, -0.758, -155.5, -78.300, 13.100, -69.807, 20.52, 0.00592, 0.13528, -0.99075, -0.00034, 407, 100,
 19:42:26.559,e8:da:bf:c6:3e:4f, 2015-01-01 01:00:26.880, -0.053, -0.438, -0.964, -1.099, 1.282, 186.646, , , , , , , 179.956, -0.791, -157.352, -78.300, 13.100, -69.807, 20.52, 0.00592, 0.13528, -0.99075, -0.00034, 407, 100,
 19:42:26.559,e8:da:bf:c6:3e:4f, 2015-01-01 01:00:26.880, 0.711, -0.449, -0.839, 0.61, 5.432, 198.853, , , , , , , 179.973, -0.835, -159.269, -78.300, 13.100, -69.807, 20.52, 0.00592, 0.13528, -0.99075, -0.00034, 407, 100,
 19:42:26.559,e8:da:bf:c6:3e:4f, 2015-01-01 01:00:26.880, 2.945, -0.408, -0.928, 7.08, -5.615, 208.496, , , , , , , -179.967, -0.851, -161.373, -78.300, 13.100, -69.807, 20.52, 0.00592, 0.13528, -0.99075, -0.00034, 407, 100,
 19:42:26.559,e8:da:bf:c6:3e:4f, 2015-01-01 01:00:26.880, 3.904, -0.197, -1.149, 0.122, 4.517, 125.366, , , , , , , -179.901, -0.835, -163.021, -78.300, 13.100, -69.807, 20.52, 0.00592, 0.13528, -0.99075, -0.00034, 407, 100,
 19:42:26.560,e8:da:bf:c6:3e:4f, 2015-01-01 01:00:26.880, 4.92, -0.087, -1.163, -3.113, 2.258, 86.731, , , , , , , -179.918, -0.895, -164.053, -78.300, 13.100, -69.807, 20.52, 0.00592, 0.13528, -0.99075, -0.00034, 407, 100,
 19:42:26.560,e8:da:bf:c6:3e:4f, 2015-01-01 01:00:26.880, 4.065, 0.004, -0.88, -0.061, -6.958, -6.653, , , , , , , -179.923, -0.857, -164.443, -78.300, 13.100, -69.807, 20.52, 0.00592, 0.13528, -0.99075, -0.00034, 407, 100,
 19:42:26.560,e8:da:bf:c6:3e:4f, 2015-01-01 01:00:26.880, 2.822, -0.025, -0.733, 2.625, -10.742, -60.852, , , , , , , -179.918, -0.78, -164.037, -78.300, 13.100, -69.807, 20.52, 0.00592, 0.13528, -0.99075, -0.00034, 407, 100,
 19:42:26.560,e8:da:bf:c6:3e:4f, 2015-01-01 01:00:26.880, 1.01, -0.037, -0.859, 2.502, -4.15, -108.826, , , , , , , -179.896, -0.67, -163.169, -78.300, 13.100, -69.807, 20.52, 0.00592, 0.13528, -0.99075, -0.00034, 407, 100,
 19:42:26.560,e8:da:bf:c6:3e:4f, 2015-01-01 01:00:26.880, -0.49, -0.031, -1.165, -2.38, 0.671, -120.911, , , , , , , -179.907, -0.67, -161.982, -78.300, 13.100, -69.807, 20.52, 0.00592, 0.13528, -0.99075, -0.00034, 407, 100,
 19:42:26.560,e8:da:bf:c6:3e:4f, 2015-01-01 01:00:26.880, -1.411, -0.086, -1.291, -5.493, -9.338, -101.501, , , , , , , -179.962, -0.626, -160.862, -78.300, 13.100, -69.807, 20.52, 0.00592, 0.13528, -0.99075, -0.00034, 407, 100,
 19:42:26.560,e8:da:bf:c6:3e:4f, 2015-01-01 01:00:26.880, -2.738, -0.117, -1.162, -7.263, -6.226, -85.999, , , , , , , 179.967, -0.527, -159.939, -78.300, 13.100, -69.807, 20.52, 0.00592, 0.13528, -0.99075, -0.00034, 407, 100,
 19:42:26.576,e8:da:bf:c6:3e:4f, 2015-01-01 01:00:26.880, -3.177, -0.166, -0.824, -1.221, 1.282, -33.447, , , , , , , 179.923, -0.511, -159.324, -78.300, 13.100, -69.807, 20.52, 0.00592, 0.13528, -0.99075, -0.00034, 407, 100,
 19:42:26.576,e8:da:bf:c6:3e:4f, 2015-01-01 01:00:26.880, -2.687, -0.137, -0.573, 2.625, 5.493, 20.752, , , , , , , 179.934, -0.549, -159.329, -78.300, 13.100, -69.807, 20.52, 0.00592, 0.13528, -0.99075, -0.00034, 407, 100,
 19:42:26.576,e8:da:bf:c6:3e:4f, 2015-01-01 01:00:26.880, -1.461, -0.075, -0.688, 4.883, 9.949, 55.298, , , , , , , 179.978, -0.632, -159.714, -78.300, 13.100, -69.807, 20.52, 0.00592, 0.13528, -0.99075, -0.00034, 407, 100,
 19:42:26.576,e8:da:bf:c6:3e:4f, 2015-01-01 01:00:26.880, -0.321, -0.03, -1.046, 0.916, 9.277, 82.092, , , , , , , -179.989, -0.731, -160.455, -78.300, 13.100, -69.807, 20.52, 0.00592, 0.13528, -0.99075, -0.00034, 407, 100,
 19:42:26.620,e8:da:bf:c6:3e:4f, 2015-01-01 01:00:26.880, 0.181, -0.041, -1.266, -0.793, 1.709, 77.454, , , , , , , -179.978, -0.791, -161.252, -78.300, 13.100, -69.807, 20.52, 0.00592, 0.13528, -0.99075, -0.00034, 407, 100,
 19:42:26.620,e8:da:bf:c6:3e:4f, 2015-01-01 01:00:26.880, 1.033, -0.076, -1.145, -2.197, 5.92, 83.801, , , , , , , -179.989, -0.835, -162.048, -78.300, 13.100, -69.807, 20.52, 0.00592, 0.13528, -0.99075, -0.00034, 407, 100,
 19:42:26.620,e8:da:bf:c6:3e:4f, 2015-01-01 01:00:26.880, 2.494, -0.075, -0.929, 4.639, -6.348, 77.209, , , , , , , -179.973, -0.829, -162.911, -78.300, 13.100, -69.807, 20.52, 0.00592, 0.13528, -0.99075, -0.00034, 407, 100,
 19:42:26.620,e8:da:bf:c6:3e:4f, 2015-01-01 01:00:26.880, 2.662, 0.023, -0.91, 0.916, 0.977, 9.338, , , , , , , -179.934, -0.802, -163.301, -78.300, 13.100, -69.807, 20.52, 0.00592, 0.13528, -0.99075, -0.00034, 407, 100,
 19:42:26.816,e8:da:bf:c6:3e:4f, 2015-01-01 01:00:26.880, 2.458, 0.051, -1.026, -0.122, -4.578, -18.25, , , , , , , -179.94, -0.802, -163.24, -78.300, 13.100, -69.807, 20.52, 0.00592, 0.13528, -0.99075, -0.00034, 407, 100,
 19:42:26.854,e8:da:bf:c6:3e:4f, 2015-01-01 01:00:26.880, 1.394, 0.039, -1.035, -2.93, -4.944, -64.636, , , , , , , -179.956, -0.731, -162.801, -78.300, 13.100, -69.807, 20.52, 0.00592, 0.13528, -0.99075, -0.00034, 407, 100,
 19:42:26.854,e8:da:bf:c6:3e:4f, 2015-01-01 01:00:26.880, 0.46, -0.042, -0.856, -0.244, -0.427, -73.914, , , , , , , -179.984, -0.72, -162.081, -78.300, 13.100, -69.807, 20.52, 0.00592, 0.13528, -0.99075, -0.00034, 407, 100,
 19:42:26.854,e8:da:bf:c6:3e:4f, 2015-01-01 01:00:26.880, -0.074, -0.043, -0.854, 2.075, 0.854, -83.069, , , , , , , -179.973, -0.703, -161.301, -78.300, 13.100, -69.807, 20.52, 0.00592, 0.13528, -0.99075, -0.00034, 407, 100,
 19:42:26.888,e8:da:bf:c6:3e:4f, 2015-01-01 01:00:26.880, -0.682, -0.037, -1.093, -0.061, -5.31, -86.182, , , , , , , -179.973, -0.687, -160.45, -78.300, 13.100, -69.807, 20.52, 0.00592, 0.13528, -0.99075, -0.00034, 407, 100,
 19:42:26.889,e8:da:bf:c6:3e:4f, 2015-01-01 01:00:26.880, -1.569, -0.051, -1.282, -4.639, -3.296, -76.416, , , , , , , 179.995, -0.632, -159.615, -78.300, 13.100, -69.807, 20.52, 0.00592, 0.13528, -0.99075, -0.00034, 407, 100,
 19:42:26.889,e8:da:bf:c6:3e:4f, 2015-01-01 01:00:26.880, -2.08, -0.098, -1.146, -5.249, -3.601, -40.833, , , , , , , 179.94, -0.599, -159.049, -78.300, 13.100, -69.807, 20.52, 0.00592, 0.13528, -0.99075, -0.00034, 407, 100,
 19:42:26.889,e8:da:bf:c6:3e:4f, 2015-01-01 01:00:26.880, -2.283, -0.115, -0.773, -0.366, 0.244, -12.085, , , , , , , 179.907, -0.577, -158.796, -78.300, 13.100, -69.807, 20.52, 0.00592, 0.13528, -0.99075, -0.00034, 407, 100,
 19:42:26.889,e8:da:bf:c6:3e:4f, 2015-01-01 01:00:26.880, -1.794, -0.1, -0.564, 4.333, 4.456, 28.87, , , , , , , 179.929, -0.604, -158.906, -78.300, 13.100, -69.807, 20.52, 0.00592, 0.13528, -0.99075, -0.00034, 407, 100,
 19:42:26.889,e8:da:bf:c6:3e:4f, 2015-01-01 01:00:26.880, -1.125, -0.038, -0.8, 4.089, 6.714, 50.11, , , , , , , 179.978, -0.665, -159.324, -78.300, 13.100, -69.807, 20.52, 0.00592, 0.13528, -0.99075, -0.00034, 407, 100,
 19:42:26.889,e8:da:bf:c6:3e:4f, 2015-01-01 01:00:26.880, -0.311, -0.018, -1.129, 0.061, 7.324, 68.42, , , , , , , -179.995, -0.742, -159.933, -78.300, 13.100, -69.807, 20.52, 0.00592, 0.13528, -0.99075, -0.00034, 407, 100,
 19:42:26.890,e8:da:bf:c6:3e:4f, 2015-01-01 01:00:26.880, 0.162, -0.048, -1.216, -1.465, 0.977, 72.51, , , , , , , -180, -0.791, -160.659, -78.300, 13.100, -69.807, 20.52, 0.00592, 0.13528, -0.99075, -0.00034, 407, 100,
 19:42:26.890,e8:da:bf:c6:3e:4f, 2015-01-01 01:00:26.880, 0.48, -0.062, -1.033, -1.221, 4.822, 69.214, , , , , , , 179.995, -0.813, -161.362, -78.300, 13.100, -69.807, 20.52, 0.00592, 0.13528, -0.99075, -0.00034, 407, 100,
 19:42:26.890,e8:da:bf:c6:3e:4f, 2015-01-01 01:00:26.880, 1.542, -0.051, -0.828, 3.052, -2.441, 71.533, , , , , , , -179.989, -0.846, -162.076, -78.300, 13.100, -69.807, 20.52, 0.00592, 0.13528, -0.99075, -0.00034, 407, 100,
 19:42:26.890,e8:da:bf:c6:3e:4f, 2015-01-01 01:00:26.880, 1.911, 0.034, -0.958, 2.563, -2.747, 31.799, , , , , , , -179.945, -0.802, -162.614, -78.300, 13.100, -69.807, 20.52, 0.00592, 0.13528, -0.99075, -0.00034, 407, 100,
 19:42:26.890,e8:da:bf:c6:3e:4f, 2015-01-01 01:00:26.880, 1.943, 0.056, -1.177, -2.747, 0, 2.747, , , , , , , -179.951, -0.802, -162.74, -78.300, 13.100, -69.807, 20.52, 0.00592, 0.13528, -0.99075, -0.00034, 407, 100,
 19:42:26.890,e8:da:bf:c6:3e:4f, 2015-01-01 01:00:26.880, 1.598, 0.021, -1.062, -2.625, -4.15, -23.01, , , , , , , -179.984, -0.78, -162.653, -78.300, 13.100, -69.807, 20.52, 0.00592, 0.13528, -0.99075, -0.00034, 407, 100,
 19:42:26.891,e8:da:bf:c6:3e:4f, 2015-01-01 01:00:26.880, 0.964, -0.042, -0.766, 0.671, -1.587, -48.279, , , , , , , -179.995, -0.742, -162.257, -78.300, 13.100, -69.807, 20.52, 0.00592, 0.13528, -0.99075, -0.00034, 407, 100,
 19:42:26.891,e8:da:bf:c6:3e:4f, 2015-01-01 01:00:26.880, 0.425, -0.043, -0.726, 5.005, -0.61, -56.519, , , , , , , -179.967, -0.742, -161.735, -78.300, 13.100, -69.807, 20.52, 0.00592, 0.13528, -0.99075, -0.00034, 407, 100,
 19:42:26.891,e8:da:bf:c6:3e:4f, 2015-01-01 01:00:26.880, -0.003, 0.023, -1.202, -0.61, -0.366, -70.557, , , , , , , -179.945, -0.725, -161.093, -78.300, 13.100, -69.807, 20.52, 0.00592, 0.13528, -0.99075, -0.00034, 407, 100,
 19:42:26.891,e8:da:bf:c6:3e:4f, 2015-01-01 01:00:26.880, -0.276, 0.017, -1.36, -5.676, 0.854, -69.031, , , , , , , -179.989, -0.731, -160.384, -78.300, 13.100, -69.807, 20.52, 0.00592, 0.13528, -0.99075, -0.00034, 407, 100,
 19:42:26.891,e8:da:bf:c6:3e:4f, 2015-01-01 01:00:26.880, -0.23, -0.05, -0.945, -3.052, 3.662, -53.345, , , , , , , 179.956, -0.753, -159.769, -78.300, 13.100, -69.807, 20.52, 0.00592, 0.13528, -0.99075, -0.00034, 407, 100,
 19:42:26.891,e8:da:bf:c6:3e:4f, 2015-01-01 01:00:26.880, 0.535, -0.1, -0.525, 4.639, 3.723, -33.691, , , , , , , 179.962, -0.791, -159.351, -78.300, 13.100, -69.807, 20.52, 0.00592, 0.13528, -0.99075, -0.00034, 407, 100,
 19:42:26.892,e8:da:bf:c6:3e:4f, 2015-01-01 01:00:26.880, 1.211, -0.04, -0.743, 8.057, -5.92, -47.607, , , , , , , -179.973, -0.78, -159, -78.300, 13.100, -69.807, 20.52, 0.00592, 0.13528, -0.99075, -0.00034, 407, 100,
 19:42:26.948,e8:da:bf:c6:3e:4f, 2015-01-01 01:00:26.880, 0.871, 0.019, -1.297, -1.465, 4.211, -90.515, , , , , , , -179.945, -0.775, -158.247, -78.300, 13.100, -69.807, 20.52, 0.00543, 0.19598, -0.98053, -0.00073, 407, 100,
 19:42:26.948,e8:da:bf:c6:3e:4f, 2015-01-01 01:00:26.880, 1.101, -0.038, -1.445, -5.981, -2.075, -81.238, , , , , , , -180, -0.786, -157.39, -78.300, 13.100, -69.807, 20.52, 0.00543, 0.19598, -0.98053, -0.00073, 407, 100,
 19:42:26.948,e8:da:bf:c6:3e:4f, 2015-01-01 01:00:26.880, 0.996, -0.109, -0.956, -3.174, -1.16, -106.262, , , , , , , 179.94, -0.753, -156.467, -78.300, 13.100, -69.807, 20.52, 0.00543, 0.19598, -0.98053, -0.00073, 407, 100,
 19:42:26.948,e8:da:bf:c6:3e:4f, 2015-01-01 01:00:26.880, 1.018, -0.195, -0.548, 4.272, 2.625, -117.981, , , , , , , 179.94, -0.764, -155.314, -78.300, 13.100, -69.807, 20.52, 0.00543, 0.19598, -0.98053, -0.00073, 407, 100,
 19:42:26.948,e8:da:bf:c6:3e:4f, 2015-01-01 01:00:26.880, 0.844, -0.179, -0.79, 5.127, 0.793, -134.033, , , , , , , 179.984, -0.78, -154.067, -78.300, 13.100, -69.807, 20.52, 0.00543, 0.19598, -0.98053, -0.00073, 407, 100,
 19:42:26.949,e8:da:bf:c6:3e:4f, 2015-01-01 01:00:26.880, 0.443, -0.167, -1.247, -0.61, 0.977, -151.062, , , , , , , 179.989, -0.78, -152.611, -78.300, 13.100, -69.807, 20.52, 0.00543, 0.19598, -0.98053, -0.00073, 407, 100,
 19:42:26.949,e8:da:bf:c6:3e:4f, 2015-01-01 01:00:26.880, 0.298, -0.217, -1.289, -4.089, -0.183, -148.682, , , , , , , 179.945, -0.78, -151.117, -78.300, 13.100, -69.807, 20.52, 0.00543, 0.19598, -0.98053, -0.00073, 407, 100,
 19:42:26.949,e8:da:bf:c6:3e:4f, 2015-01-01 01:00:26.880, 0.228, -0.294, -0.886, -0.671, 0.183, -153.32, , , , , , , 179.901, -0.775, -149.612, -78.300, 13.100, -69.807, 20.52, 0.00543, 0.19598, -0.98053, -0.00073, 407, 100,
 19:42:26.974,e8:da:bf:c6:3e:4f, 2015-01-01 01:00:26.880, 0.093, -0.331, -0.683, 3.662, 0.183, -159.607, , , , , , , 179.907, -0.769, -148.046, -78.300, 13.100, -69.807, 20.52, 0.00543, 0.19598, -0.98053, -0.00073, 407, 100,
 19:42:26.975,e8:da:bf:c6:3e:4f, 2015-01-01 01:00:26.880, -0.062, -0.309, -0.938, 2.747, 0.916, -162.476, , , , , , , 179.929, -0.769, -146.431, -78.300, 13.100, -69.807, 20.52, 0.00543, 0.19598, -0.98053, -0.00073, 407, 100,
 19:42:26.975,e8:da:bf:c6:3e:4f, 2015-01-01 01:00:26.880, -0.117, -0.275, -1.261, -1.953, 1.831, -158.875, , , , , , , 179.912, -0.775, -144.822, -78.300, 13.100, -69.807, 20.52, 0.00543, 0.19598, -0.98053, -0.00073, 407, 100,
 19:42:26.975,e8:da:bf:c6:3e:4f, 2015-01-01 01:00:26.880, -0.016, -0.286, -1.123, -3.174, 2.014, -150.513, , , , , , , 179.863, -0.791, -143.278, -78.300, 13.100, -69.807, 20.52, 0.00543, 0.19598, -0.98053, -0.00073, 407, 100,
 19:42:27.054,e8:da:bf:c6:3e:4f, 2015-01-01 01:00:27.330, 0.307, -0.314, -0.768, 1.221, 1.343, -144.104, , , , , , , 179.835, -0.802, -141.817, -78.300, 13.100, -69.807, 20.52, 0.00543, 0.19598, -0.98053, -0.00073, 407, 100,
 19:42:27.102,e8:da:bf:c6:3e:4f, 2015-01-01 01:00:27.330, 0.516, -0.308, -0.713, 4.456, 1.16, -152.466, , , , , , , 179.857, -0.807, -140.35, -78.300, 13.100, -69.807, 20.52, 0.00543, 0.19598, -0.98053, -0.00073, 407, 100,
 19:42:27.102,e8:da:bf:c6:3e:4f, 2015-01-01 01:00:27.330, 0.438, -0.295, -1.019, 2.258, 2.136, -167.419, , , , , , , 179.874, -0.813, -138.73, -78.300, 13.100, -69.807, 20.52, 0.00543, 0.19598, -0.98053, -0.00073, 407, 100,
 19:42:27.102,e8:da:bf:c6:3e:4f, 2015-01-01 01:00:27.330, 0.463, -0.313, -1.254, -1.526, 0.916, -169.067, , , , , , , 179.857, -0.824, -137.049, -78.300, 13.100, -69.807, 20.52, 0.00543, 0.19598, -0.98053, -0.00073, 407, 100,
 19:42:27.118,e8:da:bf:c6:3e:4f, 2015-01-01 01:00:27.330, 0.372, -0.356, -1.125, -2.38, -0.244, -178.162, , , , , , , 179.813, -0.813, -135.313, -78.300, 13.100, -69.807, 20.52, 0.00543, 0.19598, -0.98053, -0.00073, 407, 100,
 19:42:27.118,e8:da:bf:c6:3e:4f, 2015-01-01 01:00:27.330, 0.258, -0.411, -0.841, 0.427, 0.305, -182.312, , , , , , , 179.786, -0.802, -133.506, -78.300, 13.100, -69.807, 20.52, 0.00543, 0.19598, -0.98053, -0.00073, 407, 100,
 19:42:27.118,e8:da:bf:c6:3e:4f, 2015-01-01 01:00:27.330, 0.172, -0.425, -0.767, 3.235, 1.038, -183.96, , , , , , , 179.786, -0.802, -131.677, -78.300, 13.100, -69.807, 20.52, 0.00543, 0.19598, -0.98053, -0.00073, 407, 100,
 19:42:27.118,e8:da:bf:c6:3e:4f, 2015-01-01 01:00:27.330, 0.058, -0.402, -1.009, 1.587, -0.061, -189.331, , , , , , , 179.797, -0.791, -129.809, -78.300, 13.100, -69.807, 20.52, 0.00543, 0.19598, -0.98053, -0.00073, 407, 100,
 19:42:27.119,e8:da:bf:c6:3e:4f, 2015-01-01 01:00:27.330, -0.062, -0.401, -1.162, -1.343, 0.244, -191.284, , , , , , , 179.775, -0.78, -127.903, -78.300, 13.100, -69.807, 20.52, 0.00543, 0.19598, -0.98053, -0.00073, 407, 100,
 19:42:27.119,e8:da:bf:c6:3e:4f, 2015-01-01 01:00:27.330, -0.118, -0.43, -1.044, -1.099, 0.977, -188.293, , , , , , , 179.736, -0.775, -126.002, -78.300, 13.100, -69.807, 20.52, 0.00543, 0.19598, -0.98053, -0.00073, 407, 100,
 19:42:27.119,e8:da:bf:c6:3e:4f, 2015-01-01 01:00:27.330, -0.088, -0.452, -0.858, 1.343, 1.16, -183.716, , , , , , , 179.72, -0.775, -124.146, -78.300, 13.100, -69.807, 20.52, 0.00543, 0.19598, -0.98053, -0.00073, 407, 100,
 19:42:27.119,e8:da:bf:c6:3e:4f, 2015-01-01 01:00:27.330, -0.037, -0.438, -0.88, 2.563, 1.099, -181.519, , , , , , , 179.725, -0.769, -122.327, -78.300, 13.100, -69.807, 20.52, 0.00543, 0.19598, -0.98053, -0.00073, 407, 100,
 19:42:27.189,e8:da:bf:c6:3e:4f, 2015-01-01 01:00:27.330, -0.027, -0.401, -1.07, 0.427, 1.16, -181.763, , , , , , , 179.725, -0.769, -120.509, -78.300, 13.100, -69.807, 20.52, 0.00543, 0.19598, -0.98053, -0.00073, 407, 100,
 19:42:27.189,e8:da:bf:c6:3e:4f, 2015-01-01 01:00:27.330, -0.02, -0.383, -1.121, -1.404, 1.099, -180.725, , , , , , , 179.698, -0.769, -118.702, -78.300, 13.100, -69.807, 20.52, 0.00543, 0.19598, -0.98053, -0.00073, 407, 100,
 19:42:27.189,e8:da:bf:c6:3e:4f, 2015-01-01 01:00:27.330, -0.03, -0.394, -0.954, -0.366, 1.282, -180.481, , , , , , , 179.67, -0.764, -116.895, -78.300, 13.100, -69.807, 20.52, 0.00543, 0.19598, -0.98053, -0.00073, 407, 100,
 19:42:27.190,e8:da:bf:c6:3e:4f, 2015-01-01 01:00:27.330, 0.013, -0.412, -0.814, 2.502, 1.404, -177.917, , , , , , , 179.665, -0.764, -115.104, -78.300, 13.100, -69.807, 20.52, 0.00543, 0.19598, -0.98053, -0.00073, 407, 100,
 19:42:27.212,e8:da:bf:c6:3e:4f, 2015-01-01 01:00:27.330, 0.05, -0.405, -0.944, 2.441, 1.282, -177.307, , , , , , , 179.676, -0.764, -113.335, -78.300, 13.100, -69.807, 20.52, 0.00543, 0.19598, -0.98053, -0.00073, 407, 100,
 19:42:27.212,e8:da:bf:c6:3e:4f, 2015-01-01 01:00:27.330, 0.146, -0.392, -1.143, -0.122, 1.404, -176.453, , , , , , , 179.665, -0.764, -111.566, -78.300, 13.100, -69.807, 20.52, 0.00543, 0.19598, -0.98053, -0.00073, 407, 100,
 19:42:27.212,e8:da:bf:c6:3e:4f, 2015-01-01 01:00:27.330, 0.174, -0.389, -1.133, -1.831, 0.61, -179.932, , , , , , , 179.637, -0.764, -109.792, -78.300, 13.100, -69.807, 20.52, 0.00543, 0.19598, -0.98053, -0.00073, 407, 100,
 19:42:27.213,e8:da:bf:c6:3e:4f, 2015-01-01 01:00:27.330, 0.057, -0.409, -0.916, -0.244, 0.122, -185.974, , , , , , , 179.604, -0.747, -107.957, -78.300, 13.100, -69.807, 20.52, 0.00543, 0.19598, -0.98053, -0.00073, 407, 100,
 19:42:27.261,e8:da:bf:c6:3e:4f, 2015-01-01 01:00:27.330, -0.046, -0.428, -0.777, 2.686, 0.427, -185.486, , , , , , , 179.604, -0.731, -106.095, -78.300, 13.100, -69.807, 20.52, 0.00543, 0.19598, -0.98053, -0.00073, 407, 100,
 19:42:27.313,e8:da:bf:c6:3e:4f, 2015-01-01 01:00:27.330, -0.086, -0.418, -0.914, 2.747, 0.977, -183.289, , , , , , , 179.615, -0.72, -104.255, -78.300, 13.100, -69.807, 20.52, 0.00543, 0.19598, -0.98053, -0.00073, 407, 100,
 19:42:27.313,e8:da:bf:c6:3e:4f, 2015-01-01 01:00:27.330, -0.06, -0.394, -1.13, 0, -0.488, -182.556, , , , , , , 179.61, -0.714, -102.431, -78.300, 13.100, -69.807, 20.52, 0.00543, 0.19598, -0.98053, -0.00073, 407, 100,
 19:42:27.313,e8:da:bf:c6:3e:4f, 2015-01-01 01:00:27.330, -1.266, -0.354, -1.106, -1.648, -7.08, -199.646, , , , , , , 179.588, -0.643, -100.536, -78.300, 13.100, -69.807, 20.52, 0.00543, 0.19598, -0.98053, -0.00073, 407, 100,
 19:42:27.329,e8:da:bf:c6:3e:4f, 2015-01-01 01:00:27.330, -2.826, -0.389, -1.028, 3.967, -4.578, -181.885, , , , , , , 179.583, -0.571, -98.547, -78.300, 13.100, -69.807, 20.52, 0.00543, 0.19598, -0.98053, -0.00073, 407, 100,
 19:42:27.329,e8:da:bf:c6:3e:4f, 2015-01-01 01:00:27.330, -3.63, -0.354, -0.944, -1.892, -6.409, -114.868, , , , , , , 179.583, -0.494, -97.147, -78.300, 13.100, -69.807, 20.52, 0.00543, 0.19598, -0.98053, -0.00073, 407, 100,
 19:42:27.329,e8:da:bf:c6:3e:4f, 2015-01-01 01:00:27.330, -4.094, -0.279, -0.908, 4.211, -0.061, -76.172, , , , , , , 179.588, -0.45, -96.163, -78.300, 13.100, -69.807, 20.52, 0.00543, 0.19598, -0.98053, -0.00073, 407, 100,
 19:42:27.330,e8:da:bf:c6:3e:4f, 2015-01-01 01:00:27.330, -3.367, -0.203, -0.897, -2.319, 4.7, 1.038, , , , , , , 179.599, -0.483, -95.861, -78.300, 13.100, -69.807, 20.52, 0.00543, 0.19598, -0.98053, -0.00073, 407, 100,
 19:42:27.330,e8:da:bf:c6:3e:4f, 2015-01-01 01:00:27.330, -2.29, -0.141, -0.911, -0.793, 10.01, 37.964, , , , , , , 179.577, -0.555, -96.07, -78.300, 13.100, -69.807, 20.52, 0.00543, 0.19598, -0.98053, -0.00073, 407, 100,
 19:42:27.330,e8:da:bf:c6:3e:4f, 2015-01-01 01:00:27.330, -0.543, -0.115, -0.919, -3.54, 7.141, 81.909, , , , , , , 179.566, -0.665, -96.718, -78.300, 13.100, -69.807, 20.52, 0.00543, 0.19598, -0.98053, -0.00073, 407, 100,
 19:42:27.330,e8:da:bf:c6:3e:4f, 2015-01-01 01:00:27.330, 0.255, -0.04, -0.883, 2.197, 2.991, 77.759, , , , , , , 179.566, -0.725, -97.542, -78.300, 13.100, -69.807, 20.52, 0.00543, 0.19598, -0.98053, -0.00073, 407, 100,
 19:42:27.331,e8:da:bf:c6:3e:4f, 2015-01-01 01:00:27.330, 0.812, -0.013, -1.101, 0.916, 4.15, 74.158, , , , , , , 179.594, -0.769, -98.289, -78.300, 13.100, -69.807, 20.52, 0.00543, 0.19598, -0.98053, -0.00073, 407, 100,
 19:42:27.386,e8:da:bf:c6:3e:4f, 2015-01-01 01:00:27.330, 1.69, 0.02, -1.362, -3.296, -3.113, 68.237, , , , , , , 179.588, -0.786, -99.031, -78.300, 13.100, -69.807, 20.52, 0.0076, 0.64548, -0.76367, -0.00137, 407, 100,
 19:42:27.386,e8:da:bf:c6:3e:4f, 2015-01-01 01:00:27.330, 1.796, 0.051, -1.135, -5.493, -1.77, 26.611, , , , , , , 179.544, -0.758, -99.498, -78.300, 13.100, -69.807, 20.52, 0.0076, 0.64548, -0.76367, -0.00137, 407, 100,
 19:42:27.386,e8:da:bf:c6:3e:4f, 2015-01-01 01:00:27.330, 1.543, 0.036, -0.651, 0.244, -3.296, 2.319, , , , , , , 179.517, -0.736, -99.613, -78.300, 13.100, -69.807, 20.52, 0.0076, 0.64548, -0.76367, -0.00137, 407, 100,
 19:42:27.387,e8:da:bf:c6:3e:4f, 2015-01-01 01:00:27.330, 0.866, 0.027, -0.546, 5.432, -2.686, -22.034, , , , , , , 179.55, -0.698, -99.509, -78.300, 13.100, -69.807, 20.52, 0.0076, 0.64548, -0.76367, -0.00137, 407, 100,
 19:42:27.403,e8:da:bf:c6:3e:4f, 2015-01-01 01:00:27.330, 0.177, 0.027, -0.883, 4.395, -0.244, -36.011, , , , , , , 179.599, -0.698, -99.196, -78.300, 13.100, -69.807, 20.52, 0.0076, 0.64548, -0.76367, -0.00137, 407, 100,
 19:42:27.403,e8:da:bf:c6:3e:4f, 2015-01-01 01:00:27.330, -0.176, 0.017, -1.257, 0.305, -0.244, -34.302, , , , , , , 179.621, -0.687, -98.839, -78.300, 13.100, -69.807, 20.52, 0.0076, 0.64548, -0.76367, -0.00137, 407, 100,
 19:42:27.403,e8:da:bf:c6:3e:4f, 2015-01-01 01:00:27.330, -0.574, 0.008, -1.297, -3.784, -4.456, -33.142, , , , , , , 179.594, -0.665, -98.514, -78.300, 13.100, -69.807, 20.52, 0.0076, 0.64548, -0.76367, -0.00137, 407, 100,
 19:42:27.403,e8:da:bf:c6:3e:4f, 2015-01-01 01:00:27.330, -1.287, -0.018, -0.997, -1.587, -2.075, -27.283, , , , , , , 179.561, -0.626, -98.19, -78.300, 13.100, -69.807, 20.52, 0.0076, 0.64548, -0.76367, -0.00137, 407, 100,
 19:42:27.419,e8:da:bf:c6:3e:4f, 2015-01-01 01:00:27.745, -1.6, -0.044, -0.857, 0, -2.197, 3.601, , , , , , , 179.555, -0.599, -98.091, -78.300, 13.100, -69.807, 20.52, 0.0076, 0.64548, -0.76367, -0.00137, 407, 100,
 19:42:27.419,e8:da:bf:c6:3e:4f, 2015-01-01 01:00:27.745, -1.605, -0.047, -0.908, 0.061, 1.099, 24.963, , , , , , , 179.561, -0.599, -98.245, -78.300, 13.100, -69.807, 20.52, 0.0076, 0.64548, -0.76367, -0.00137, 407, 100,
 19:42:27.419,e8:da:bf:c6:3e:4f, 2015-01-01 01:00:27.745, -1, -0.059, -0.953, -0.488, 4.517, 55.054, , , , , , , 179.561, -0.632, -98.668, -78.300, 13.100, -69.807, 20.52, 0.0076, 0.64548, -0.76367, -0.00137, 407, 100,
 19:42:27.419,e8:da:bf:c6:3e:4f, 2015-01-01 01:00:27.745, -0.353, -0.066, -0.846, 1.038, 5.554, 65.918, , , , , , , 179.566, -0.692, -99.294, -78.300, 13.100, -69.807, 20.52, 0.0076, 0.64548, -0.76367, -0.00137, 407, 100,
 19:42:27.658,e8:da:bf:c6:3e:4f, 2015-01-01 01:00:27.745, 0.055, -0.041, -0.882, 2.747, 0.549, 70.251, , , , , , , 179.594, -0.736, -99.981, -78.300, 13.100, -69.807, 20.52, 0.0076, 0.64548, -0.76367, -0.00137, 407, 100,
 19:42:27.844,e8:da:bf:c6:3e:4f, 2015-01-01 01:00:27.745, 0.611, -0.03, -1.145, 0, 4.211, 73.853, , , , , , , 179.615, -0.769, -100.701, -78.300, 13.100, -69.807, 20.52, 0.0076, 0.64548, -0.76367, -0.00137, 407, 100,
 19:42:27.889,e8:da:bf:c6:3e:4f, 2015-01-01 01:00:28.100, 1.841, -0.015, -1.349, -3.174, -4.456, 74.646, , , , , , , 179.599, -0.786, -101.481, -78.300, 13.100, -69.807, 20.52, 0.00626, 0.61929, -0.78506, -0.00177, 407, 100,
 19:42:27.889,e8:da:bf:c6:3e:4f, 2015-01-01 01:00:28.100, 2.043, 0.016, -1.043, -4.333, 0, 21.79, , , , , , , 179.566, -0.758, -101.953, -78.300, 13.100, -69.807, 20.52, 0.00626, 0.61929, -0.78506, -0.00177, 407, 100,
 19:42:27.905,e8:da:bf:c6:3e:4f, 2015-01-01 01:00:28.100, 2.111, 0.016, -0.635, 1.099, -0.366, -0.061, , , , , , , 179.55, -0.769, -102.03, -78.300, 13.100, -69.807, 20.52, 0.00626, 0.61929, -0.78506, -0.00177, 407, 100,
 19:42:27.905,e8:da:bf:c6:3e:4f, 2015-01-01 01:00:28.100, 1.561, 0.054, -0.652, 4.517, -3.174, -36.804, , , , , , , 179.588, -0.736, -101.843, -78.300, 13.100, -69.807, 20.52, 0.00626, 0.61929, -0.78506, -0.00177, 407, 100,
 19:42:27.905,e8:da:bf:c6:3e:4f, 2015-01-01 01:00:28.100, 1.082, 0.065, -1.039, 1.587, -1.221, -52.551, , , , , , , 179.61, -0.72, -101.365, -78.300, 13.100, -69.807, 20.52, 0.00626, 0.61929, -0.78506, -0.00177, 407, 100,
 19:42:27.905,e8:da:bf:c6:3e:4f, 2015-01-01 01:00:28.100, 0.542, 0.036, -1.234, -1.831, -2.686, -69.946, , , , , , , 179.599, -0.687, -100.761, -78.300, 13.100, -69.807, 20.52, 0.00626, 0.61929, -0.78506, -0.00177, 407, 100,
 19:42:27.905,e8:da:bf:c6:3e:4f, 2015-01-01 01:00:28.100, -0.061, -0.048, -0.992, -1.099, 0.305, -85.083, , , , , , , 179.577, -0.676, -99.965, -78.300, 13.100, -69.807, 20.52, 0.00626, 0.61929, -0.78506, -0.00177, 407, 100,
 19:42:27.905,e8:da:bf:c6:3e:4f, 2015-01-01 01:00:28.100, -0.453, -0.103, -0.767, 2.869, 0.671, -78.43, , , , , , , 179.583, -0.67, -99.135, -78.300, 13.100, -69.807, 20.52, 0.00626, 0.61929, -0.78506, -0.00177, 407, 100,
 19:42:27.905,e8:da:bf:c6:3e:4f, 2015-01-01 01:00:28.100, -0.769, -0.053, -0.968, 2.686, -5.676, -64.148, , , , , , , 179.61, -0.637, -98.443, -78.300, 13.100, -69.807, 20.52, 0.00626, 0.61929, -0.78506, -0.00177, 407, 100,
 19:42:27.905,e8:da:bf:c6:3e:4f, 2015-01-01 01:00:28.100, -1.601, 0.002, -1.281, -1.648, -0.61, -62.622, , , , , , , 179.604, -0.593, -97.795, -78.300, 13.100, -69.807, 20.52, 0.00626, 0.61929, -0.78506, -0.00177, 407, 100,
 19:42:27.906,e8:da:bf:c6:3e:4f, 2015-01-01 01:00:28.100, -1.757, -0.029, -1.255, -5.615, -0.305, -23.804, , , , , , , 179.561, -0.588, -97.372, -78.300, 13.100, -69.807, 20.52, 0.00626, 0.61929, -0.78506, -0.00177, 407, 100,
 19:42:27.906,e8:da:bf:c6:3e:4f, 2015-01-01 01:00:28.100, -1.867, -0.077, -0.838, -2.747, -0.732, -5.615, , , , , , , 179.517, -0.582, -97.251, -78.300, 13.100, -69.807, 20.52, 0.00626, 0.61929, -0.78506, -0.00177, 407, 100,
 19:42:27.906,e8:da:bf:c6:3e:4f, 2015-01-01 01:00:28.100, -1.44, -0.125, -0.543, 4.578, 4.028, 27.649, , , , , , , 179.533, -0.599, -97.361, -78.300, 13.100, -69.807, 20.52, 0.00626, 0.61929, -0.78506, -0.00177, 407, 100,
 19:42:27.906,e8:da:bf:c6:3e:4f, 2015-01-01 01:00:28.100, -0.854, -0.085, -0.787, 4.089, 3.235, 47.485, , , , , , , 179.583, -0.648, -97.778, -78.300, 13.100, -69.807, 20.52, 0.00626, 0.61929, -0.78506, -0.00177, 407, 100,
 19:42:27.906,e8:da:bf:c6:3e:4f, 2015-01-01 01:00:28.100, -0.338, -0.011, -1.166, 1.343, 5.066, 57.129, , , , , , , 179.615, -0.692, -98.295, -78.300, 13.100, -69.807, 20.52, 0.00626, 0.61929, -0.78506, -0.00177, 407, 100,
 19:42:27.906,e8:da:bf:c6:3e:4f, 2015-01-01 01:00:28.100, 0.131, 0.019, -1.355, -3.967, 1.038, 67.139, , , , , , , 179.604, -0.731, -98.937, -78.300, 13.100, -69.807, 20.52, 0.00626, 0.61929, -0.78506, -0.00177, 407, 100,
 19:42:27.906,e8:da:bf:c6:3e:4f, 2015-01-01 01:00:28.100, 0.26, -0.006, -1.068, -3.54, 0, 59.753, , , , , , , 179.566, -0.736, -99.586, -78.300, 13.100, -69.807, 20.52, 0.00626, 0.61929, -0.78506, -0.00177, 407, 100,
 19:42:27.906,e8:da:bf:c6:3e:4f, 2015-01-01 01:00:28.100, 0.11, -0.042, -0.721, 0.671, -0.488, 48.828, , , , , , , 179.561, -0.742, -100.118, -78.300, 13.100, -69.807, 20.52, 0.00626, 0.61929, -0.78506, -0.00177, 407, 100,
 19:42:27.906,e8:da:bf:c6:3e:4f, 2015-01-01 01:00:28.100, 0.041, -0.049, -0.722, 3.601, -0.671, 49.622, , , , , , , 179.588, -0.736, -100.602, -78.300, 13.100, -69.807, 20.52, 0.00626, 0.61929, -0.78506, -0.00177, 407, 100,
 19:42:27.906,e8:da:bf:c6:3e:4f, 2015-01-01 01:00:28.100, 0.05, -0.018, -1.049, 1.282, -0.366, 50.842, , , , , , , 179.621, -0.736, -101.113, -78.300, 13.100, -69.807, 20.52, 0.00626, 0.61929, -0.78506, -0.00177, 407, 100,
 19:42:27.906,e8:da:bf:c6:3e:4f, 2015-01-01 01:00:28.100, 0.035, 0.008, -1.265, -2.991, -0.916, 48.096, , , , , , , 179.615, -0.736, -101.607, -78.300, 13.100, -69.807, 20.52, 0.00626, 0.61929, -0.78506, -0.00177, 407, 100,
 19:42:27.907,e8:da:bf:c6:3e:4f, 2015-01-01 01:00:28.100, -0.28, 0.011, -1.057, -2.563, -6.165, 41.687, , , , , , , 179.588, -0.698, -102.068, -78.300, 13.100, -69.807, 20.52, 0.00626, 0.61929, -0.78506, -0.00177, 407, 100,
 19:42:27.907,e8:da:bf:c6:3e:4f, 2015-01-01 01:00:28.100, -1.442, -0.019, -0.844, 2.38, -1.709, 32.349, , , , , , , 179.583, -0.659, -102.404, -78.300, 13.100, -69.807, 20.52, 0.00626, 0.61929, -0.78506, -0.00177, 407, 100,
 19:42:27.907,e8:da:bf:c6:3e:4f, 2015-01-01 01:00:28.100, -1.462, -0.085, -0.944, -1.099, -3.845, 84.229, , , , , , , 179.61, -0.648, -103.002, -78.300, 13.100, -69.807, 20.52, 0.00626, 0.61929, -0.78506, -0.00177, 407, 100,
 19:42:27.907,e8:da:bf:c6:3e:4f, 2015-01-01 01:00:28.100, -1.821, -0.132, -1.057, -0.732, -0.305, 89.783, , , , , , , 179.594, -0.621, -103.903, -78.300, 13.100, -69.807, 20.52, 0.00626, 0.61929, -0.78506, -0.00177, 407, 100,
 19:42:27.907,e8:da:bf:c6:3e:4f, 2015-01-01 01:00:28.100, -1.167, -0.229, -0.935, -1.526, 2.014, 134.155, , , , , , , 179.599, -0.654, -105.024, -78.300, 13.100, -69.807, 20.52, 0.00626, 0.61929, -0.78506, -0.00177, 407, 100,
 19:42:27.907,e8:da:bf:c6:3e:4f, 2015-01-01 01:00:28.100, -0.841, -0.277, -0.816, 0.183, 0.793, 138.672, , , , , , , 179.599, -0.67, -106.436, -78.300, 13.100, -69.807, 20.52, 0.00626, 0.61929, -0.78506, -0.00177, 407, 100,
 19:42:27.907,e8:da:bf:c6:3e:4f, 2015-01-01 01:00:28.100, -0.458, -0.293, -0.799, 4.395, 2.625, 151.489, , , , , , , 179.637, -0.703, -107.858, -78.300, 13.100, -69.807, 20.52, 0.00626, 0.61929, -0.78506, -0.00177, 407, 100,
 19:42:27.908,e8:da:bf:c6:3e:4f, 2015-01-01 01:00:28.100, -0.046, -0.273, -1.07, 1.221, 1.343, 162.72, , , , , , , 179.687, -0.731, -109.473, -78.300, 13.100, -69.807, 20.52, 0.00626, 0.61929, -0.78506, -0.00177, 407, 100,
 19:42:27.908,e8:da:bf:c6:3e:4f, 2015-01-01 01:00:28.100, 0.061, -0.25, -1.326, -3.784, 1.404, 155.64, , , , , , , 179.687, -0.764, -111.055, -78.300, 13.100, -69.807, 20.52, 0.00626, 0.61929, -0.78506, -0.00177, 407, 100,
 19:42:27.908,e8:da:bf:c6:3e:4f, 2015-01-01 01:00:28.100, 0.08, -0.277, -1.153, -4.822, 0, 156.555, , , , , , , 179.654, -0.78, -112.621, -78.300, 13.100, -69.807, 20.52, 0.00626, 0.61929, -0.78506, -0.00177, 407, 100,
 19:42:27.908,e8:da:bf:c6:3e:4f, 2015-01-01 01:00:28.100, 0.079, -0.319, -0.777, -0.732, -1.038, 155.64, , , , , , , 179.637, -0.786, -114.186, -78.300, 13.100, -69.807, 20.52, 0.00626, 0.61929, -0.78506, -0.00177, 407, 100,
 19:42:27.908,e8:da:bf:c6:3e:4f, 2015-01-01 01:00:28.100, 0.064, -0.316, -0.684, 3.357, -1.526, 153.809, , , , , , , 179.676, -0.786, -115.73, -78.300, 13.100, -69.807, 20.52, 0.00626, 0.61929, -0.78506, -0.00177, 407, 100,
 19:42:27.909,e8:da:bf:c6:3e:4f, 2015-01-01 01:00:28.100, 0.07, -0.275, -1.005, 1.709, -1.038, 153.87, , , , , , , 179.72, -0.786, -117.268, -78.300, 13.100, -69.807, 20.52, 0.00626, 0.61929, -0.78506, -0.00177, 407, 100,
 19:42:27.909,e8:da:bf:c6:3e:4f, 2015-01-01 01:00:28.100, 0.069, -0.251, -1.283, -3.296, -0.549, 153.503, , , , , , , 179.725, -0.786, -118.812, -78.300, 13.100, -69.807, 20.52, 0.00626, 0.61929, -0.78506, -0.00177, 407, 100,
 19:42:27.909,e8:da:bf:c6:3e:4f, 2015-01-01 01:00:28.100, 0.026, -0.276, -1.104, -3.54, -2.686, 150.696, , , , , , , 179.703, -0.786, -120.333, -78.300, 13.100, -69.807, 20.52, 0.00626, 0.61929, -0.78506, -0.00177, 407, 100,
 19:42:27.909,e8:da:bf:c6:3e:4f, 2015-01-01 01:00:28.100, -0.231, -0.312, -0.767, 0.793, -3.052, 145.63, , , , , , , 179.703, -0.758, -121.816, -78.300, 13.100, -69.807, 20.52, 0.00626, 0.61929, -0.78506, -0.00177, 407, 100,
 19:42:27.909,e8:da:bf:c6:3e:4f, 2015-01-01 01:00:28.100, -0.434, -0.321, -0.783, 2.93, -2.625, 150.94, , , , , , , 179.742, -0.747, -123.289, -78.300, 13.100, -69.807, 20.52, 0.00626, 0.61929, -0.78506, -0.00177, 407, 100,
 19:42:27.910,e8:da:bf:c6:3e:4f, 2015-01-01 01:00:28.100, -0.479, -0.309, -1.104, 0, -1.831, 163.635, , , , , , , 179.775, -0.731, -124.882, -78.300, 13.100, -69.807, 20.52, 0.00626, 0.61929, -0.78506, -0.00177, 407, 100,
 19:42:27.910,e8:da:bf:c6:3e:4f, 2015-01-01 01:00:28.100, -0.529, -0.317, -1.247, -3.784, -0.916, 167.542, , , , , , , 179.769, -0.731, -126.535, -78.300, 13.100, -69.807, 20.52, 0.00626, 0.61929, -0.78506, -0.00177, 407, 100,
 19:42:27.910,e8:da:bf:c6:3e:4f, 2015-01-01 01:00:28.100, -0.407, -0.387, -0.948, -2.38, 0.122, 180.115, , , , , , , 179.747, -0.736, -128.287, -78.300, 13.100, -69.807, 20.52, 0.00626, 0.61929, -0.78506, -0.00177, 407, 100,
 19:42:27.910,e8:da:bf:c6:3e:4f, 2015-01-01 01:00:28.100, -0.256, -0.441, -0.697, 2.258, 0.793, 184.265, , , , , , , 179.769, -0.753, -130.117, -78.300, 13.100, -69.807, 20.52, 0.00626, 0.61929, -0.78506, -0.00177, 407, 100,
 19:42:27.910,e8:da:bf:c6:3e:4f, 2015-01-01 01:00:28.100, -0.041, -0.442, -0.884, 2.197, 1.709, 190.552, , , , , , , 179.819, -0.78, -131.995, -78.300, 13.100, -69.807, 20.52, 0.00626, 0.61929, -0.78506, -0.00177, 407, 100,
 19:42:27.911,e8:da:bf:c6:3e:4f, 2015-01-01 01:00:28.100, 0.106, -0.416, -1.214, -2.136, -0.671, 191.895, , , , , , , 179.835, -0.797, -133.918, -78.300, 13.100, -69.807, 20.52, 0.00626, 0.61929, -0.78506, -0.00177, 407, 100,
 19:42:27.911,e8:da:bf:c6:3e:4f, 2015-01-01 01:00:28.100, 0.154, -0.414, -1.189, -4.089, -0.793, 188.843, , , , , , , 179.819, -0.791, -135.824, -78.300, 13.100, -69.807, 20.52, 0.00626, 0.61929, -0.78506, -0.00177, 407, 100,
 19:42:27.911,e8:da:bf:c6:3e:4f, 2015-01-01 01:00:28.100, 0.104, -0.436, -0.886, -1.526, -0.854, 184.204, , , , , , , 179.808, -0.797, -137.686, -78.300, 13.100, -69.807, 20.52, 0.00626, 0.61929, -0.78506, -0.00177, 407, 100,
 19:42:27.969,e8:da:bf:c6:3e:4f, 2015-01-01 01:00:28.100, 0.071, -0.442, -0.731, 2.014, -0.977, 182.434, , , , , , , 179.835, -0.791, -139.515, -78.300, 13.100, -69.807, 20.52, 0.00626, 0.61929, -0.78506, -0.00177, 407, 100,
 19:42:27.969,e8:da:bf:c6:3e:4f, 2015-01-01 01:00:28.100, 0.083, -0.415, -0.936, 1.587, -1.282, 182.922, , , , , , , 179.879, -0.791, -141.35, -78.300, 13.100, -69.807, 20.52, 0.00626, 0.61929, -0.78506, -0.00177, 407, 100,
 19:42:27.969,e8:da:bf:c6:3e:4f, 2015-01-01 01:00:28.100, 0.063, -0.388, -1.202, -2.563, -1.099, 180.908, , , , , , , 179.89, -0.786, -143.168, -78.300, 13.100, -69.807, 20.52, 0.00626, 0.61929, -0.78506, -0.00177, 407, 100,
 19:42:27.969,e8:da:bf:c6:3e:4f, 2015-01-01 01:00:28.100, 0.055, -0.406, -1.097, -3.052, -1.038, 181.152, , , , , , , 179.874, -0.786, -144.981, -78.300, 13.100, -69.807, 20.52, 0.00626, 0.61929, -0.78506, -0.00177, 407, 100,
 19:42:27.995,e8:da:bf:c6:3e:4f, 2015-01-01 01:00:28.100, 0.053, -0.432, -0.856, -0.244, -1.282, 180.603, , , , , , , 179.879, -0.78, -146.794, -78.300, 13.100, -69.807, 20.52, 0.00626, 0.61929, -0.78506, -0.00177, 407, 100,
 19:42:27.995,e8:da:bf:c6:3e:4f, 2015-01-01 01:00:28.100, 0.069, -0.427, -0.833, 1.404, -1.282, 180.359, , , , , , , 179.907, -0.775, -148.601, -78.300, 13.100, -69.807, 20.52, 0.00626, 0.61929, -0.78506, -0.00177, 407, 100,
 19:42:27.995,e8:da:bf:c6:3e:4f, 2015-01-01 01:00:28.100, 0.074, -0.392, -1.026, -0.061, -1.099, 179.443, , , , , , , 179.934, -0.764, -150.403, -78.300, 13.100, -69.807, 20.52, 0.00626, 0.61929, -0.78506, -0.00177, 407, 100,
 19:42:27.995,e8:da:bf:c6:3e:4f, 2015-01-01 01:00:28.100, 0.06, -0.369, -1.138, -2.502, -1.099, 178.406, , , , , , , 179.934, -0.764, -152.188, -78.300, 13.100, -69.807, 20.52, 0.00626, 0.61929, -0.78506, -0.00177, 407, 100,
 19:42:28.011,e8:da:bf:c6:3e:4f, 2015-01-01 01:00:28.100, 0.021, -0.384, -0.993, -1.953, -1.465, 177.368, , , , , , , 179.929, -0.753, -153.973, -78.300, 13.100, -69.807, 20.52, 0.00626, 0.61929, -0.78506, -0.00177, 407, 100,
 19:42:28.011,e8:da:bf:c6:3e:4f, 2015-01-01 01:00:28.100, 0.007, -0.414, -0.82, 0.916, -0.854, 177.551, , , , , , , 179.94, -0.747, -155.748, -78.300, 13.100, -69.807, 20.52, 0.00626, 0.61929, -0.78506, -0.00177, 407, 100,
 19:42:28.011,e8:da:bf:c6:3e:4f, 2015-01-01 01:00:28.100, 0.079, -0.421, -0.929, 1.221, -0.854, 179.688, , , , , , , 179.973, -0.742, -157.538, -78.300, 13.100, -69.807, 20.52, 0.00626, 0.61929, -0.78506, -0.00177, 407, 100,
 19:42:28.011,e8:da:bf:c6:3e:4f, 2015-01-01 01:00:28.100, 0.099, -0.394, -1.117, -1.465, 1.282, 178.528, , , , , , , 179.989, -0.747, -159.329, -78.300, 13.100, -69.807, 20.52, 0.00626, 0.61929, -0.78506, -0.00177, 407, 100,
 19:42:28.258,e8:da:bf:c6:3e:4f, 2015-01-01 01:00:28.100, 1.299, -0.38, -1.036, -1.343, 3.113, 193.909, , , , , , , 179.989, -0.791, -161.18, -78.300, 13.100, -69.807, 20.52, 0.00528, 0.14661, -0.98914, -0.00073, 407, 100,
 19:42:28.258,e8:da:bf:c6:3e:4f, 2015-01-01 01:00:28.460, 3.122, -0.323, -0.923, 5.493, -3.723, 180.542, , , , , , , -179.967, -0.775, -163.13, -78.300, 13.100, -69.807, 20.52, 0.00528, 0.14661, -0.98914, -0.00073, 407, 100,
 19:42:28.258,e8:da:bf:c6:3e:4f, 2015-01-01 01:00:28.460, 4.212, -0.169, -0.966, 0.854, 6.531, 109.802, , , , , , , -179.918, -0.797, -164.526, -78.300, 13.100, -69.807, 20.52, 0.00528, 0.14661, -0.98914, -0.00073, 407, 100,
 19:42:28.259,e8:da:bf:c6:3e:4f, 2015-01-01 01:00:28.460, 4.932, -0.057, -1.073, 0.366, -1.648, 61.34, , , , , , , -179.907, -0.835, -165.399, -78.300, 13.100, -69.807, 20.52, 0.00528, 0.14661, -0.98914, -0.00073, 407, 100,
 19:42:28.275,e8:da:bf:c6:3e:4f, 2015-01-01 01:00:28.460, 4.04, 0.021, -1.01, -1.16, -5.92, -30.029, , , , , , , -179.907, -0.791, -165.493, -78.300, 13.100, -69.807, 20.52, 0.00528, 0.14661, -0.98914, -0.00073, 407, 100,
 19:42:28.275,e8:da:bf:c6:3e:4f, 2015-01-01 01:00:28.460, 2.544, -0.016, -0.848, 0.977, -14.16, -85.632, , , , , , , -179.918, -0.692, -164.899, -78.300, 13.100, -69.807, 20.52, 0.00528, 0.14661, -0.98914, -0.00073, 407, 100,
 19:42:28.275,e8:da:bf:c6:3e:4f, 2015-01-01 01:00:28.460, 0.625, -0.062, -0.813, 0.977, -0.305, -130.859, , , , , , , -179.912, -0.604, -163.757, -78.300, 13.100, -69.807, 20.52, 0.00528, 0.14661, -0.98914, -0.00073, 407, 100,
 19:42:28.275,e8:da:bf:c6:3e:4f, 2015-01-01 01:00:28.460, -0.724, -0.09, -1.048, -1.343, -0.427, -130.676, , , , , , , -179.929, -0.61, -162.427, -78.300, 13.100, -69.807, 20.52, 0.00528, 0.14661, -0.98914, -0.00073, 407, 100,
 19:42:28.275,e8:da:bf:c6:3e:4f, 2015-01-01 01:00:28.460, -1.72, -0.131, -1.248, -4.272, -8.545, -112, , , , , , , -179.962, -0.549, -161.219, -78.300, 13.100, -69.807, 20.52, 0.00528, 0.14661, -0.98914, -0.00073, 407, 100,
 19:42:28.276,e8:da:bf:c6:3e:4f, 2015-01-01 01:00:28.460, -2.858, -0.151, -1.239, -7.385, -4.272, -87.769, , , , , , , 179.967, -0.478, -160.225, -78.300, 13.100, -69.807, 20.52, 0.00528, 0.14661, -0.98914, -0.00073, 407, 100,
 19:42:28.276,e8:da:bf:c6:3e:4f, 2015-01-01 01:00:28.460, -3.389, -0.178, -0.89, -2.075, -1.221, -37.903, , , , , , , 179.923, -0.45, -159.598, -78.300, 13.100, -69.807, 20.52, 0.00528, 0.14661, -0.98914, -0.00073, 407, 100,
 19:42:28.276,e8:da:bf:c6:3e:4f, 2015-01-01 01:00:28.460, -3.153, -0.146, -0.569, 2.38, 3.174, 15.503, , , , , , , 179.923, -0.461, -159.527, -78.300, 13.100, -69.807, 20.52, 0.00528, 0.14661, -0.98914, -0.00073, 407, 100,
 19:42:28.276,e8:da:bf:c6:3e:4f, 2015-01-01 01:00:28.460, -2.038, -0.089, -0.674, 5.005, 9.827, 62.378, , , , , , , 179.967, -0.533, -159.944, -78.300, 13.100, -69.807, 20.52, 0.00528, 0.14661, -0.98914, -0.00073, 407, 100,
 19:42:28.276,e8:da:bf:c6:3e:4f, 2015-01-01 01:00:28.460, -0.724, -0.062, -1.001, 0.244, 10.071, 96.191, , , , , , , -180, -0.637, -160.774, -78.300, 13.100, -69.807, 20.52, 0.00528, 0.14661, -0.98914, -0.00073, 407, 100,
 19:42:28.276,e8:da:bf:c6:3e:4f, 2015-01-01 01:00:28.460, 0.066, -0.092, -1.137, 0.671, 3.723, 100.037, , , , , , , -179.984, -0.731, -161.774, -78.300, 13.100, -69.807, 20.52, 0.00528, 0.14661, -0.98914, -0.00073, 407, 100,
 19:42:28.276,e8:da:bf:c6:3e:4f, 2015-01-01 01:00:28.460, 0.871, -0.122, -1.132, -0.793, 7.019, 103.577, , , , , , , -179.978, -0.769, -162.779, -78.300, 13.100, -69.807, 20.52, 0.00528, 0.14661, -0.98914, -0.00073, 407, 100,
 19:42:28.291,e8:da:bf:c6:3e:4f, 2015-01-01 01:00:28.460, 2.604, -0.119, -1.064, 3.906, -5.676, 104.553, , , , , , , -179.956, -0.78, -163.872, -78.300, 13.100, -69.807, 20.52, 0.00528, 0.14661, -0.98914, -0.00073, 407, 100,
 19:42:28.291,e8:da:bf:c6:3e:4f, 2015-01-01 01:00:28.460, 3.006, 0.002, -1.04, -0.122, 0.854, 32.776, , , , , , , -179.918, -0.747, -164.537, -78.300, 13.100, -69.807, 20.52, 0.00528, 0.14661, -0.98914, -0.00073, 407, 100,
 19:42:28.292,e8:da:bf:c6:3e:4f, 2015-01-01 01:00:28.460, 3.109, 0.044, -0.994, -1.282, -1.77, 0.305, , , , , , , -179.934, -0.764, -164.669, -78.300, 13.100, -69.807, 20.52, 0.00528, 0.14661, -0.98914, -0.00073, 407, 100,
 19:42:28.292,e8:da:bf:c6:3e:4f, 2015-01-01 01:00:28.460, 2.099, 0.054, -0.884, -0.671, -6.958, -57.495, , , , , , , -179.94, -0.698, -164.372, -78.300, 13.100, -69.807, 20.52, 0.00528, 0.14661, -0.98914, -0.00073, 407, 100,
 19:42:28.292,e8:da:bf:c6:3e:4f, 2015-01-01 01:00:28.460, 1.037, -0.033, -0.839, 0, -3.113, -77.332, , , , , , , -179.956, -0.654, -163.647, -78.300, 13.100, -69.807, 20.52, 0.00528, 0.14661, -0.98914, -0.00073, 407, 100,
 19:42:28.292,e8:da:bf:c6:3e:4f, 2015-01-01 01:00:28.460, 0.173, -0.048, -0.913, 2.075, -1.16, -97.473, , , , , , , -179.945, -0.626, -162.79, -78.300, 13.100, -69.807, 20.52, 0.00528, 0.14661, -0.98914, -0.00073, 407, 100,
 19:42:28.292,e8:da:bf:c6:3e:4f, 2015-01-01 01:00:28.460, -0.659, -0.052, -1.132, -1.526, -0.061, -104.309, , , , , , , -179.951, -0.643, -161.752, -78.300, 13.100, -69.807, 20.52, 0.00528, 0.14661, -0.98914, -0.00073, 407, 100,
 19:42:28.292,e8:da:bf:c6:3e:4f, 2015-01-01 01:00:28.460, -1.266, -0.081, -1.229, -3.906, -7.324, -84.106, , , , , , , -179.989, -0.588, -160.812, -78.300, 13.100, -69.807, 20.52, 0.00528, 0.14661, -0.98914, -0.00073, 407, 100,
 19:42:28.308,e8:da:bf:c6:3e:4f, 2015-01-01 01:00:28.460, -2.136, -0.098, -1.145, -5.127, -3.662, -67.383, , , , , , , 179.956, -0.533, -160.071, -78.300, 13.100, -69.807, 20.52, 0.00528, 0.14661, -0.98914, -0.00073, 407, 100,
 19:42:28.308,e8:da:bf:c6:3e:4f, 2015-01-01 01:00:28.460, -2.574, -0.129, -0.864, -0.977, -0.916, -30.457, , , , , , , 179.929, -0.505, -159.571, -78.300, 13.100, -69.807, 20.52, 0.00528, 0.14661, -0.98914, -0.00073, 407, 100,
 19:42:28.308,e8:da:bf:c6:3e:4f, 2015-01-01 01:00:28.460, -2.393, -0.11, -0.659, 1.892, 2.258, 13.123, , , , , , , 179.934, -0.516, -159.527, -78.300, 13.100, -69.807, 20.52, 0.00528, 0.14661, -0.98914, -0.00073, 407, 100,
 19:42:28.309,e8:da:bf:c6:3e:4f, 2015-01-01 01:00:28.460, -1.708, -0.071, -0.734, 4.15, 6.714, 46.631, , , , , , , 179.967, -0.566, -159.84, -78.300, 13.100, -69.807, 20.52, 0.00528, 0.14661, -0.98914, -0.00073, 407, 100,
 19:42:28.358,e8:da:bf:c6:3e:4f, 2015-01-01 01:00:28.460, -0.628, -0.046, -0.989, 0.854, 6.836, 73.242, , , , , , , -180, -0.637, -160.472, -78.300, 13.100, -69.807, 20.52, 0.00528, 0.14661, -0.98914, -0.00073, 407, 100,
 19:42:28.358,e8:da:bf:c6:3e:4f, 2015-01-01 01:00:28.460, -0.024, -0.054, -1.126, 0.305, 5.981, 76.721, , , , , , , -179.989, -0.714, -161.235, -78.300, 13.100, -69.807, 20.52, 0.00528, 0.14661, -0.98914, -0.00073, 407, 100,
 19:42:28.359,e8:da:bf:c6:3e:4f, 2015-01-01 01:00:28.460, 0.157, -0.066, -1.137, -0.916, 1.343, 76.416, , , , , , , -179.984, -0.731, -162.004, -78.300, 13.100, -69.807, 20.52, 0.00528, 0.14661, -0.98914, -0.00073, 407, 100,
 19:42:28.359,e8:da:bf:c6:3e:4f, 2015-01-01 01:00:28.460, 1.173, -0.073, -0.986, -0.061, 4.944, 88.562, , , , , , , -179.984, -0.786, -162.817, -78.300, 13.100, -69.807, 20.52, 0.00528, 0.14661, -0.98914, -0.00073, 407, 100,
 19:42:28.375,e8:da:bf:c6:3e:4f, 2015-01-01 01:00:28.460, 2.116, -0.014, -0.941, 5.066, -8.667, 66.101, , , , , , , -179.945, -0.742, -163.669, -78.300, 13.100, -69.807, 20.52, 0.00528, 0.14661, -0.98914, -0.00073, 407, 100,
 19:42:28.375,e8:da:bf:c6:3e:4f, 2015-01-01 01:00:28.460, 2.029, 0.048, -1.036, -3.418, 5.005, 10.315, , , , , , , -179.94, -0.731, -163.965, -78.300, 13.100, -69.807, 20.52, 0.00528, 0.14661, -0.98914, -0.00073, 407, 100,
 19:42:28.375,e8:da:bf:c6:3e:4f, 2015-01-01 01:00:28.460, 2.123, 0.019, -1.019, 0.244, -5.005, 1.465, , , , , , , -179.956, -0.731, -164.048, -78.300, 13.100, -69.807, 20.52, 0.00528, 0.14661, -0.98914, -0.00073, 407, 100,
 19:42:28.375,e8:da:bf:c6:3e:4f, 2015-01-01 01:00:28.460, 1.463, 0.002, -0.875, -0.854, -1.77, -44.556, , , , , , , -179.956, -0.687, -163.801, -78.300, 13.100, -69.807, 20.52, 0.00528, 0.14661, -0.98914, -0.00073, 407, 100,
 19:42:28.543,e8:da:bf:c6:3e:4f, 2015-01-01 01:00:28.460, 0.934, -0.04, -0.835, 2.197, -0.61, -53.406, , , , , , , -179.956, -0.676, -163.295, -78.300, 13.100, -69.807, 20.52, 0.00433, 0.15073, -0.98853, -0.00058, 407, 100,
 19:42:28.627,e8:da:bf:c6:3e:4f, 2015-01-01 01:00:28.815, 0.409, -0.01, -1.023, 1.709, -0.122, -72.632, , , , , , , -179.934, -0.676, -162.658, -78.300, 13.100, -69.807, 20.52, 0.00433, 0.15073, -0.98853, -0.00058, 407, 100,
 19:42:28.627,e8:da:bf:c6:3e:4f, 2015-01-01 01:00:28.815, 0.084, -0.006, -1.238, -2.869, 0.183, -76.721, , , , , , , -179.951, -0.676, -161.895, -78.300, 13.100, -69.807, 20.52, 0.00433, 0.15073, -0.98853, -0.00058, 407, 100,
 19:42:28.627,e8:da:bf:c6:3e:4f, 2015-01-01 01:00:28.815, 0.16, -0.04, -1.099, -3.296, 1.221, -70.007, , , , , , , -179.995, -0.681, -161.164, -78.300, 13.100, -69.807, 20.52, 0.00433, 0.15073, -0.98853, -0.00058, 407, 100,
 19:42:28.742,e8:da:bf:c6:3e:4f, 2015-01-01 01:00:28.815, 0.351, -0.071, -0.756, 0.977, 2.38, -71.777, , , , , , , 179.989, -0.703, -160.466, -78.300, 13.100, -69.807, 20.52, 0.00433, 0.15073, -0.98853, -0.00058, 407, 100,
 19:42:28.742,e8:da:bf:c6:3e:4f, 2015-01-01 01:00:28.815, 0.778, -0.079, -0.702, 4.333, 1.648, -73.853, , , , , , , -179.984, -0.725, -159.736, -78.300, 13.100, -69.807, 20.52, 0.00433, 0.15073, -0.98853, -0.00058, 407, 100,
 19:42:28.742,e8:da:bf:c6:3e:4f, 2015-01-01 01:00:28.815, 0.978, -0.062, -1.021, 2.808, -1.831, -88.501, , , , , , , -179.951, -0.725, -158.939, -78.300, 13.100, -69.807, 20.52, 0.00433, 0.15073, -0.98853, -0.00058, 407, 100,
 19:42:28.742,e8:da:bf:c6:3e:4f, 2015-01-01 01:00:28.815, 0.793, -0.077, -1.312, -2.686, -0.671, -109.68, , , , , , , -179.962, -0.709, -157.923, -78.300, 13.100, -69.807, 20.52, 0.00433, 0.15073, -0.98853, -0.00058, 407, 100,
 19:42:28.743,e8:da:bf:c6:3e:4f, 2015-01-01 01:00:28.815, 0.717, -0.141, -1.163, -4.028, -0.427, -113.037, , , , , , , 179.984, -0.703, -156.808, -78.300, 13.100, -69.807, 20.52, 0.00433, 0.15073, -0.98853, -0.00058, 407, 100,
 19:42:28.743,e8:da:bf:c6:3e:4f, 2015-01-01 01:00:28.815, 0.682, -0.194, -0.73, 1.282, 1.709, -124.817, , , , , , , 179.962, -0.709, -155.616, -78.300, 13.100, -69.807, 20.52, 0.00433, 0.15073, -0.98853, -0.00058, 407, 100,
 19:42:28.743,e8:da:bf:c6:3e:4f, 2015-01-01 01:00:28.815, 0.612, -0.197, -0.721, 4.333, 1.404, -134.46, , , , , , , 179.984, -0.725, -154.319, -78.300, 13.100, -69.807, 20.52, 0.00433, 0.15073, -0.98853, -0.00058, 407, 100,
 19:42:28.743,e8:da:bf:c6:3e:4f, 2015-01-01 01:00:28.815, 0.418, -0.186, -1.069, 1.16, 0.122, -145.813, , , , , , , -180, -0.725, -152.908, -78.300, 13.100, -69.807, 20.52, 0.00433, 0.15073, -0.98853, -0.00058, 407, 100,
 19:42:28.744,e8:da:bf:c6:3e:4f, 2015-01-01 01:00:28.815, 0.238, -0.217, -1.257, -2.808, -0.244, -150.513, , , , , , , 179.978, -0.725, -151.419, -78.300, 13.100, -69.807, 20.52, 0.00433, 0.15073, -0.98853, -0.00058, 407, 100,
 19:42:28.744,e8:da:bf:c6:3e:4f, 2015-01-01 01:00:28.815, 0.224, -0.285, -1.027, -1.892, 1.404, -150.024, , , , , , , 179.934, -0.731, -149.914, -78.300, 13.100, -69.807, 20.52, 0.00433, 0.15073, -0.98853, -0.00058, 407, 100,
 19:42:28.744,e8:da:bf:c6:3e:4f, 2015-01-01 01:00:28.815, 0.206, -0.321, -0.766, 2.136, 0.488, -153.076, , , , , , , 179.923, -0.736, -148.409, -78.300, 13.100, -69.807, 20.52, 0.00433, 0.15073, -0.98853, -0.00058, 407, 100,
 19:42:28.744,e8:da:bf:c6:3e:4f, 2015-01-01 01:00:28.815, 0.106, -0.306, -0.854, 2.93, 0.916, -158.691, , , , , , , 179.94, -0.736, -146.843, -78.300, 13.100, -69.807, 20.52, 0.00433, 0.15073, -0.98853, -0.00058, 407, 100,
 19:42:28.744,e8:da:bf:c6:3e:4f, 2015-01-01 01:00:28.815, 0.077, -0.276, -1.146, -0.305, 0.977, -158.02, , , , , , , 179.94, -0.747, -145.261, -78.300, 13.100, -69.807, 20.52, 0.00433, 0.15073, -0.98853, -0.00058, 407, 100,
 19:42:28.745,e8:da:bf:c6:3e:4f, 2015-01-01 01:00:28.815, 0.158, -0.282, -1.155, -2.808, 1.465, -156.738, , , , , , , 179.901, -0.753, -143.69, -78.300, 13.100, -69.807, 20.52, 0.00433, 0.15073, -0.98853, -0.00058, 407, 100,
 19:42:28.745,e8:da:bf:c6:3e:4f, 2015-01-01 01:00:28.815, 0.286, -0.319, -0.872, 0.183, 0.854, -158.142, , , , , , , 179.868, -0.764, -142.119, -78.300, 13.100, -69.807, 20.52, 0.00433, 0.15073, -0.98853, -0.00058, 407, 100,
 19:42:28.745,e8:da:bf:c6:3e:4f, 2015-01-01 01:00:28.815, 0.372, -0.34, -0.758, 3.052, 1.16, -162.537, , , , , , , 179.874, -0.769, -140.515, -78.300, 13.100, -69.807, 20.52, 0.00433, 0.15073, -0.98853, -0.00058, 407, 100,
 19:42:28.745,e8:da:bf:c6:3e:4f, 2015-01-01 01:00:28.815, 0.366, -0.337, -0.94, 2.747, 1.953, -168.579, , , , , , , 179.89, -0.78, -138.862, -78.300, 13.100, -69.807, 20.52, 0.00433, 0.15073, -0.98853, -0.00058, 407, 100,
 19:42:28.745,e8:da:bf:c6:3e:4f, 2015-01-01 01:00:28.815, 0.325, -0.334, -1.172, -0.366, 1.16, -174.255, , , , , , , 179.885, -0.786, -137.142, -78.300, 13.100, -69.807, 20.52, 0.00433, 0.15073, -0.98853, -0.00058, 407, 100,
 19:42:28.760,e8:da:bf:c6:3e:4f, 2015-01-01 01:00:28.815, 0.263, -0.362, -1.146, -2.014, 0.244, -178.406, , , , , , , 179.852, -0.791, -135.379, -78.300, 13.100, -69.807, 20.52, 0.00433, 0.15073, -0.98853, -0.00058, 407, 100,
 19:42:28.760,e8:da:bf:c6:3e:4f, 2015-01-01 01:00:28.815, 0.188, -0.404, -0.911, -0.122, 0.366, -181.763, , , , , , , 179.819, -0.78, -133.577, -78.300, 13.100, -69.807, 20.52, 0.00433, 0.15073, -0.98853, -0.00058, 407, 100,
 19:42:28.776,e8:da:bf:c6:3e:4f, 2015-01-01 01:00:28.815, 0.142, -0.424, -0.794, 2.625, 0.854, -182.678, , , , , , , 179.813, -0.786, -131.754, -78.300, 13.100, -69.807, 20.52, 0.00433, 0.15073, -0.98853, -0.00058, 407, 100,
 19:42:28.776,e8:da:bf:c6:3e:4f, 2015-01-01 01:00:28.815, 0.073, -0.41, -0.968, 1.77, 0.366, -185.913, , , , , , , 179.819, -0.78, -129.913, -78.300, 13.100, -69.807, 20.52, 0.00433, 0.15073, -0.98853, -0.00058, 407, 100,
 19:42:28.776,e8:da:bf:c6:3e:4f, 2015-01-01 01:00:28.815, -0.001, -0.403, -1.126, -0.549, 0.305, -187.5, , , , , , , 179.808, -0.78, -128.046, -78.300, 13.100, -69.807, 20.52, 0.00433, 0.15073, -0.98853, -0.00058, 407, 100,
 19:42:28.776,e8:da:bf:c6:3e:4f, 2015-01-01 01:00:28.815, -0.063, -0.419, -1.074, -1.221, 0.427, -187.317, , , , , , , 179.775, -0.769, -126.167, -78.300, 13.100, -69.807, 20.52, 0.00433, 0.15073, -0.98853, -0.00058, 407, 100,
 19:42:28.777,e8:da:bf:c6:3e:4f, 2015-01-01 01:00:28.815, -0.057, -0.441, -0.905, 0.427, 1.709, -184.204, , , , , , , 179.753, -0.775, -124.31, -78.300, 13.100, -69.807, 20.52, 0.00433, 0.15073, -0.98853, -0.00058, 407, 100,
 19:42:28.777,e8:da:bf:c6:3e:4f, 2015-01-01 01:00:28.815, -0.009, -0.437, -0.864, 2.258, 1.038, -182.007, , , , , , , 179.753, -0.775, -122.487, -78.300, 13.100, -69.807, 20.52, 0.00433, 0.15073, -0.98853, -0.00058, 407, 100,
 19:42:28.777,e8:da:bf:c6:3e:4f, 2015-01-01 01:00:28.815, -0.007, -0.408, -1.011, 0.916, 1.282, -183.167, , , , , , , 179.753, -0.78, -120.663, -78.300, 13.100, -69.807, 20.52, 0.00433, 0.15073, -0.98853, -0.00058, 407, 100,
 19:42:28.777,e8:da:bf:c6:3e:4f, 2015-01-01 01:00:28.815, 0.002, -0.391, -1.098, -0.854, 1.038, -181.946, , , , , , , 179.731, -0.78, -118.839, -78.300, 13.100, -69.807, 20.52, 0.00433, 0.15073, -0.98853, -0.00058, 407, 100,
 19:42:28.777,e8:da:bf:c6:3e:4f, 2015-01-01 01:00:28.815, -0.021, -0.399, -0.996, -0.427, 1.038, -182.678, , , , , , , 179.703, -0.78, -117.015, -78.300, 13.100, -69.807, 20.52, 0.00433, 0.15073, -0.98853, -0.00058, 407, 100,
 19:42:28.778,e8:da:bf:c6:3e:4f, 2015-01-01 01:00:28.815, 0.027, -0.418, -0.862, 1.709, 1.465, -180.115, , , , , , , 179.692, -0.78, -115.203, -78.300, 13.100, -69.807, 20.52, 0.00433, 0.15073, -0.98853, -0.00058, 407, 100,
 19:42:28.778,e8:da:bf:c6:3e:4f, 2015-01-01 01:00:28.815, 0.045, -0.415, -0.924, 2.258, 1.16, -181.213, , , , , , , 179.698, -0.786, -113.401, -78.300, 13.100, -69.807, 20.52, 0.00433, 0.15073, -0.98853, -0.00058, 407, 100,
 19:42:28.778,e8:da:bf:c6:3e:4f, 2015-01-01 01:00:28.815, 0.11, -0.401, -1.091, 0.366, 1.465, -180.481, , , , , , , 179.692, -0.78, -111.594, -78.300, 13.100, -69.807, 20.52, 0.00433, 0.15073, -0.98853, -0.00058, 407, 100,
 19:42:28.835,e8:da:bf:c6:3e:4f, 2015-01-01 01:00:28.815, 0.132, -0.394, -1.122, -1.404, 0.732, -182.19, , , , , , , 179.665, -0.786, -109.786, -78.300, 13.100, -69.807, 20.52, 0.00623, 0.65845, -0.75253, -0.00165, 407, 100,
 19:42:28.836,e8:da:bf:c6:3e:4f, 2015-01-01 01:00:28.815, 0.049, -0.41, -0.956, -0.488, 0.183, -185.913, , , , , , , 179.632, -0.775, -107.941, -78.300, 13.100, -69.807, 20.52, 0.00623, 0.65845, -0.75253, -0.00165, 407, 100,
 19:42:28.836,e8:da:bf:c6:3e:4f, 2015-01-01 01:00:28.815, -0.031, -0.432, -0.81, 2.075, 0.366, -185.608, , , , , , , 179.626, -0.764, -106.084, -78.300, 13.100, -69.807, 20.52, 0.00623, 0.65845, -0.75253, -0.00165, 407, 100,
 19:42:28.836,e8:da:bf:c6:3e:4f, 2015-01-01 01:00:28.815, -0.068, -0.431, -0.894, 2.625, 0.916, -184.448, , , , , , , 179.632, -0.753, -104.233, -78.300, 13.100, -69.807, 20.52, 0.00623, 0.65845, -0.75253, -0.00165, 407, 100,
 19:42:28.836,e8:da:bf:c6:3e:4f, 2015-01-01 01:00:28.815, -0.051, -0.41, -1.088, 0.488, 0.732, -183.533, , , , , , , 179.632, -0.753, -102.398, -78.300, 13.100, -69.807, 20.52, 0.00623, 0.65845, -0.75253, -0.00165, 407, 100,
 19:42:28.836,e8:da:bf:c6:3e:4f, 2015-01-01 01:00:28.815, -0.691, -0.368, -1.101, -0.854, -5.798, -193.176, , , , , , , 179.61, -0.698, -100.53, -78.300, 13.100, -69.807, 20.52, 0.00623, 0.65845, -0.75253, -0.00165, 407, 100,
 19:42:28.836,e8:da:bf:c6:3e:4f, 2015-01-01 01:00:28.815, -2.402, -0.374, -1.047, 2.014, -3.784, -197.815, , , , , , , 179.588, -0.632, -98.52, -78.300, 13.100, -69.807, 20.52, 0.00623, 0.65845, -0.75253, -0.00165, 407, 100,
 19:42:28.837,e8:da:bf:c6:3e:4f, 2015-01-01 01:00:28.815, -3.221, -0.371, -0.979, -0.488, -6.348, -131.165, , , , , , , 179.594, -0.566, -96.905, -78.300, 13.100, -69.807, 20.52, 0.00623, 0.65845, -0.75253, -0.00165, 407, 100,
 19:42:28.971,e8:da:bf:c6:3e:4f, 2015-01-01 01:00:29.205, -4.071, -0.302, -0.935, 2.441, -2.563, -99.304, , , , , , , 179.583, -0.505, -95.768, -78.300, 13.100, -69.807, 20.52, 0.00623, 0.65845, -0.75253, -0.00165, 407, 100,
 19:42:28.993,e8:da:bf:c6:3e:4f, 2015-01-01 01:00:29.205, -3.626, -0.237, -0.871, 0.366, 3.54, -21.729, , , , , , , 179.604, -0.511, -95.191, -78.300, 13.100, -69.807, 20.52, 0.00623, 0.65845, -0.75253, -0.00165, 407, 100,
 19:42:28.994,e8:da:bf:c6:3e:4f, 2015-01-01 01:00:29.205, -2.874, -0.162, -0.878, -0.793, 6.958, 19.409, , , , , , , 179.588, -0.56, -95.224, -78.300, 13.100, -69.807, 20.52, 0.00623, 0.65845, -0.75253, -0.00165, 407, 100,
 19:42:28.994,e8:da:bf:c6:3e:4f, 2015-01-01 01:00:29.205, -1.042, -0.125, -0.94, -2.747, 10.62, 72.693, , , , , , , 179.588, -0.67, -95.707, -78.300, 13.100, -69.807, 20.52, 0.00623, 0.65845, -0.75253, -0.00165, 407, 100,
 19:42:29.010,e8:da:bf:c6:3e:4f, 2015-01-01 01:00:29.205, 0.024, -0.057, -0.927, -0.061, 5.798, 79.163, , , , , , , 179.566, -0.747, -96.526, -78.300, 13.100, -69.807, 20.52, 0.00623, 0.65845, -0.75253, -0.00165, 407, 100,
 19:42:29.010,e8:da:bf:c6:3e:4f, 2015-01-01 01:00:29.205, 0.417, -0.022, -0.966, 2.014, 3.845, 72.876, , , , , , , 179.594, -0.791, -97.273, -78.300, 13.100, -69.807, 20.52, 0.00623, 0.65845, -0.75253, -0.00165, 407, 100,
 19:42:29.010,e8:da:bf:c6:3e:4f, 2015-01-01 01:00:29.205, 1.587, -0.008, -1.244, -1.343, 1.282, 81.97, , , , , , , 179.604, -0.835, -98.053, -78.300, 13.100, -69.807, 20.52, 0.00623, 0.65845, -0.75253, -0.00165, 407, 100,
 19:42:29.010,e8:da:bf:c6:3e:4f, 2015-01-01 01:00:29.205, 2.189, 0.048, -1.283, -3.235, -4.7, 44.556, , , , , , , 179.594, -0.797, -98.729, -78.300, 13.100, -69.807, 20.52, 0.00623, 0.65845, -0.75253, -0.00165, 407, 100,
 19:42:29.010,e8:da:bf:c6:3e:4f, 2015-01-01 01:00:29.205, 2.043, 0.059, -0.863, -3.906, 0.183, 1.465, , , , , , , 179.55, -0.791, -98.893, -78.300, 13.100, -69.807, 20.52, 0.00623, 0.65845, -0.75253, -0.00165, 407, 100,
 19:42:29.011,e8:da:bf:c6:3e:4f, 2015-01-01 01:00:29.205, 1.447, 0.041, -0.539, 3.784, -5.981, -23.865, , , , , , , 179.55, -0.753, -98.795, -78.300, 13.100, -69.807, 20.52, 0.00623, 0.65845, -0.75253, -0.00165, 407, 100,
 19:42:29.011,e8:da:bf:c6:3e:4f, 2015-01-01 01:00:29.205, 0.464, 0.023, -0.697, 5.188, 0.305, -51.88, , , , , , , 179.599, -0.72, -98.377, -78.300, 13.100, -69.807, 20.52, 0.00623, 0.65845, -0.75253, -0.00165, 407, 100,
 19:42:29.011,e8:da:bf:c6:3e:4f, 2015-01-01 01:00:29.205, -0.225, 0.006, -1.093, 2.686, -0.183, -53.345, , , , , , , 179.637, -0.709, -97.839, -78.300, 13.100, -69.807, 20.52, 0.00623, 0.65845, -0.75253, -0.00165, 407, 100,
 19:42:29.012,e8:da:bf:c6:3e:4f, 2015-01-01 01:00:29.205, -0.772, 0.006, -1.37, -3.357, -3.784, -48.096, , , , , , , 179.626, -0.698, -97.333, -78.300, 13.100, -69.807, 20.52, 0.00623, 0.65845, -0.75253, -0.00165, 407, 100,
 19:42:29.012,e8:da:bf:c6:3e:4f, 2015-01-01 01:00:29.205, -1.418, -0.019, -1.204, -3.967, -2.625, -36.072, , , , , , , 179.583, -0.654, -96.905, -78.300, 13.100, -69.807, 20.52, 0.00623, 0.65845, -0.75253, -0.00165, 407, 100,
 19:42:29.012,e8:da:bf:c6:3e:4f, 2015-01-01 01:00:29.205, -1.668, -0.06, -0.934, -2.686, -1.648, -6.958, , , , , , , 179.55, -0.632, -96.707, -78.300, 13.100, -69.807, 20.52, 0.00623, 0.65845, -0.75253, -0.00165, 407, 100,
 19:42:29.012,e8:da:bf:c6:3e:4f, 2015-01-01 01:00:29.205, -1.501, -0.081, -0.724, 1.099, 2.319, 18.127, , , , , , , 179.539, -0.632, -96.773, -78.300, 13.100, -69.807, 20.52, 0.00623, 0.65845, -0.75253, -0.00165, 407, 100,
 19:42:29.044,e8:da:bf:c6:3e:4f, 2015-01-01 01:00:29.205, -0.901, -0.069, -0.792, 2.502, 4.761, 43.396, , , , , , , 179.566, -0.681, -97.108, -78.300, 13.100, -69.807, 20.52, 0.00623, 0.65845, -0.75253, -0.00165, 407, 100,
 19:42:29.044,e8:da:bf:c6:3e:4f, 2015-01-01 01:00:29.205, -0.383, -0.033, -0.922, 2.258, 3.845, 51.147, , , , , , , 179.594, -0.72, -97.592, -78.300, 13.100, -69.807, 20.52, 0.00623, 0.65845, -0.75253, -0.00165, 407, 100,
 19:42:29.045,e8:da:bf:c6:3e:4f, 2015-01-01 01:00:29.205, 0.011, 0.006, -1.082, 0.61, 1.282, 58.533, , , , , , , 179.615, -0.764, -98.146, -78.300, 13.100, -69.807, 20.52, 0.00623, 0.65845, -0.75253, -0.00165, 407, 100,
 19:42:29.045,e8:da:bf:c6:3e:4f, 2015-01-01 01:00:29.205, 0.221, 0.008, -1.163, -1.709, 2.136, 59.387, , , , , , , 179.615, -0.775, -98.745, -78.300, 13.100, -69.807, 20.52, 0.00623, 0.65845, -0.75253, -0.00165, 407, 100,
 19:42:29.061,e8:da:bf:c6:3e:4f, 2015-01-01 01:00:29.205, 0.864, -0.022, -1.119, -2.625, 1.892, 62.683, , , , , , , 179.599, -0.807, -99.355, -78.300, 13.100, -69.807, 20.52, 0.00623, 0.65845, -0.75253, -0.00165, 407, 100,
 19:42:29.061,e8:da:bf:c6:3e:4f, 2015-01-01 01:00:29.205, 1.428, -0.022, -0.986, -1.343, -3.052, 44.312, , , , , , , 179.588, -0.791, -99.915, -78.300, 13.100, -69.807, 20.52, 0.00623, 0.65845, -0.75253, -0.00165, 407, 100,
 19:42:29.061,e8:da:bf:c6:3e:4f, 2015-01-01 01:00:29.205, 1.562, 0.006, -0.853, -0.244, 0.732, 12.695, , , , , , , 179.583, -0.786, -100.168, -78.300, 13.100, -69.807, 20.52, 0.00623, 0.65845, -0.75253, -0.00165, 407, 100,
 19:42:29.061,e8:da:bf:c6:3e:4f, 2015-01-01 01:00:29.205, 1.483, 0.051, -0.854, 1.099, -1.831, -4.944, , , , , , , 179.588, -0.786, -100.212, -78.300, 13.100, -69.807, 20.52, 0.00623, 0.65845, -0.75253, -0.00165, 407, 100,
 19:42:29.185,e8:da:bf:c6:3e:4f, 2015-01-01 01:00:29.205, 1.022, 0.073, -0.918, 1.099, -2.563, -31.433, , , , , , , 179.599, -0.758, -100.009, -78.300, 13.100, -69.807, 20.52, 0.00623, 0.65845, -0.75253, -0.00165, 407, 100,
 19:42:29.204,e8:da:bf:c6:3e:4f, 2015-01-01 01:00:29.205, 0.544, 0.043, -0.973, 1.16, -1.587, -42.358, , , , , , , 179.604, -0.736, -99.63, -78.300, 13.100, -69.807, 20.52, 0.00684, 0.6571, -0.75369, -0.00082, 407, 100,
 19:42:29.204,e8:da:bf:c6:3e:4f, 2015-01-01 01:00:29.205, 0.105, -0.007, -0.973, 1.16, -0.549, -53.284, , , , , , , 179.61, -0.725, -99.146, -78.300, 13.100, -69.807, 20.52, 0.00684, 0.6571, -0.75369, -0.00082, 407, 100,
 19:42:29.204,e8:da:bf:c6:3e:4f, 2015-01-01 01:00:29.205, -0.223, -0.037, -0.987, 1.465, 0.244, -54.932, , , , , , , 179.621, -0.714, -98.597, -78.300, 13.100, -69.807, 20.52, 0.00684, 0.6571, -0.75369, -0.00082, 407, 100,
 19:42:29.220,e8:da:bf:c6:3e:4f, 2015-01-01 01:00:29.205, -0.415, -0.019, -1.087, -0.122, -2.808, -47.363, , , , , , , 179.626, -0.709, -98.086, -78.300, 13.100, -69.807, 20.52, 0.00684, 0.6571, -0.75369, -0.00082, 407, 100,
 19:42:29.220,e8:da:bf:c6:3e:4f, 2015-01-01 01:00:29.205, -0.891, 0.01, -1.081, -1.892, -2.93, -42.725, , , , , , , 179.61, -0.665, -97.641, -78.300, 13.100, -69.807, 20.52, 0.00684, 0.6571, -0.75369, -0.00082, 407, 100,
 19:42:29.220,e8:da:bf:c6:3e:4f, 2015-01-01 01:00:29.205, -1.257, -0.008, -1.005, -1.526, 0.183, -26.428, , , , , , , 179.588, -0.654, -97.289, -78.300, 13.100, -69.807, 20.52, 0.00684, 0.6571, -0.75369, -0.00082, 407, 100,
 19:42:29.220,e8:da:bf:c6:3e:4f, 2015-01-01 01:00:29.205, -1.313, -0.04, -0.939, -0.916, 0, -3.418, , , , , , , 179.577, -0.654, -97.163, -78.300, 13.100, -69.807, 20.52, 0.00684, 0.6571, -0.75369, -0.00082, 407, 100,
 19:42:29.220,e8:da:bf:c6:3e:4f, 2015-01-01 01:00:29.205, -1.131, -0.062, -0.876, 0.244, 1.831, 13.367, , , , , , , 179.572, -0.665, -97.213, -78.300, 13.100, -69.807, 20.52, 0.00684, 0.6571, -0.75369, -0.00082, 407, 100,
 19:42:29.220,e8:da:bf:c6:3e:4f, 2015-01-01 01:00:29.205, -0.712, -0.062, -0.851, 2.136, 2.869, 32.959, , , , , , , 179.588, -0.698, -97.471, -78.300, 13.100, -69.807, 20.52, 0.00684, 0.6571, -0.75369, -0.00082, 407, 100,
 19:42:29.220,e8:da:bf:c6:3e:4f, 2015-01-01 01:00:29.205, -0.476, -0.023, -0.932, 2.563, 1.465, 37.415, , , , , , , 179.615, -0.72, -97.828, -78.300, 13.100, -69.807, 20.52, 0.00684, 0.6571, -0.75369, -0.00082, 407, 100,
 19:42:29.221,e8:da:bf:c6:3e:4f, 2015-01-01 01:00:29.205, -0.241, 0.004, -1.128, 0, 0.793, 46.265, , , , , , , 179.637, -0.736, -98.251, -78.300, 13.100, -69.807, 20.52, 0.00684, 0.6571, -0.75369, -0.00082, 407, 100,
 19:42:29.264,e8:da:bf:c6:3e:4f, 2015-01-01 01:00:29.560, -0.416, 0.013, -1.171, -2.869, -3.052, 44.983, , , , , , , 179.621, -0.725, -98.723, -78.300, 13.100, -69.807, 20.52, 0.00684, 0.6571, -0.75369, -0.00082, 407, 100,
 19:42:29.264,e8:da:bf:c6:3e:4f, 2015-01-01 01:00:29.560, -0.797, -0.02, -0.959, -1.404, -3.296, 49.011, , , , , , , 179.604, -0.692, -99.179, -78.300, 13.100, -69.807, 20.52, 0.00684, 0.6571, -0.75369, -0.00082, 407, 100,
 19:42:29.264,e8:da:bf:c6:3e:4f, 2015-01-01 01:00:29.560, -1.093, -0.064, -0.858, 0.366, -2.319, 64.514, , , , , , , 179.604, -0.67, -99.761, -78.300, 13.100, -69.807, 20.52, 0.00684, 0.6571, -0.75369, -0.00082, 407, 100,
 19:42:29.264,e8:da:bf:c6:3e:4f, 2015-01-01 01:00:29.560, -1.234, -0.099, -0.937, 0.488, -0.488, 79.834, , , , , , , 179.621, -0.665, -100.486, -78.300, 13.100, -69.807, 20.52, 0.00684, 0.6571, -0.75369, -0.00082, 407, 100,
 19:42:29.280,e8:da:bf:c6:3e:4f, 2015-01-01 01:00:29.560, -1.203, -0.133, -1.041, -0.854, 0.122, 98.694, , , , , , , 179.626, -0.665, -101.393, -78.300, 13.100, -69.807, 20.52, 0.00684, 0.6571, -0.75369, -0.00082, 407, 100,
 19:42:29.280,e8:da:bf:c6:3e:4f, 2015-01-01 01:00:29.560, -0.893, -0.175, -1.05, -2.014, 3.052, 117.249, , , , , , , 179.615, -0.698, -102.48, -78.300, 13.100, -69.807, 20.52, 0.00684, 0.6571, -0.75369, -0.00082, 407, 100,
 19:42:29.280,e8:da:bf:c6:3e:4f, 2015-01-01 01:00:29.560, -0.512, -0.206, -0.925, -0.854, 1.099, 130.31, , , , , , , 179.615, -0.731, -103.744, -78.300, 13.100, -69.807, 20.52, 0.00684, 0.6571, -0.75369, -0.00082, 407, 100,
 19:42:29.280,e8:da:bf:c6:3e:4f, 2015-01-01 01:00:29.560, -0.253, -0.221, -0.776, 2.319, 1.221, 133.484, , , , , , , 179.632, -0.747, -105.057, -78.300, 13.100, -69.807, 20.52, 0.00684, 0.6571, -0.75369, -0.00082, 407, 100,
 19:42:29.311,e8:da:bf:c6:3e:4f, 2015-01-01 01:00:29.560, 0.003, -0.215, -0.915, 2.502, 0.061, 142.517, , , , , , , 179.676, -0.764, -106.458, -78.300, 13.100, -69.807, 20.52, 0.00684, 0.6571, -0.75369, -0.00082, 407, 100,
 19:42:29.311,e8:da:bf:c6:3e:4f, 2015-01-01 01:00:29.560, 0.094, -0.199, -1.209, -1.465, -1.282, 139.099, , , , , , , 179.698, -0.775, -107.869, -78.300, 13.100, -69.807, 20.52, 0.00684, 0.6571, -0.75369, -0.00082, 407, 100,
 19:42:29.312,e8:da:bf:c6:3e:4f, 2015-01-01 01:00:29.560, -0.063, -0.21, -1.189, -3.601, -2.502, 132.507, , , , , , , 179.681, -0.758, -109.226, -78.300, 13.100, -69.807, 20.52, 0.00684, 0.6571, -0.75369, -0.00082, 407, 100,
 19:42:29.312,e8:da:bf:c6:3e:4f, 2015-01-01 01:00:29.560, -0.386, -0.248, -0.894, -1.099, -2.136, 130.798, , , , , , , 179.67, -0.742, -110.533, -78.300, 13.100, -69.807, 20.52, 0.00684, 0.6571, -0.75369, -0.00082, 407, 100,
 19:42:29.436,e8:da:bf:c6:3e:4f, 2015-01-01 01:00:29.560, -0.343, -0.279, -0.772, 2.197, -0.488, 146.484, , , , , , , 179.692, -0.742, -111.923, -78.300, 13.100, -69.807, 20.52, 0.00684, 0.6571, -0.75369, -0.00082, 407, 100,
 19:42:29.474,e8:da:bf:c6:3e:4f, 2015-01-01 01:00:29.560, -0.282, -0.264, -0.996, 0.61, 0.061, 148.865, , , , , , , 179.725, -0.747, -113.417, -78.300, 13.100, -69.807, 20.52, 0.00684, 0.6571, -0.75369, -0.00082, 407, 100,
 19:42:29.474,e8:da:bf:c6:3e:4f, 2015-01-01 01:00:29.560, -0.139, -0.258, -1.175, -2.747, -0.427, 153.931, , , , , , , 179.725, -0.758, -114.928, -78.300, 13.100, -69.807, 20.52, 0.00684, 0.6571, -0.75369, -0.00082, 407, 100,
 19:42:29.474,e8:da:bf:c6:3e:4f, 2015-01-01 01:00:29.560, -0.16, -0.28, -1.016, -2.319, -1.404, 153.442, , , , , , , 179.714, -0.758, -116.477, -78.300, 13.100, -69.807, 20.52, 0.00684, 0.6571, -0.75369, -0.00082, 407, 100,
 19:42:29.490,e8:da:bf:c6:3e:4f, 2015-01-01 01:00:29.560, -0.22, -0.317, -0.797, 1.099, -1.465, 155.579, , , , , , , 179.725, -0.747, -118.015, -78.300, 13.100, -69.807, 20.52, 0.00684, 0.6571, -0.75369, -0.00082, 407, 100,
 19:42:29.490,e8:da:bf:c6:3e:4f, 2015-01-01 01:00:29.560, -0.255, -0.328, -0.889, 1.77, -0.793, 160.828, , , , , , , 179.758, -0.747, -119.608, -78.300, 13.100, -69.807, 20.52, 0.00684, 0.6571, -0.75369, -0.00082, 407, 100,
 19:42:29.490,e8:da:bf:c6:3e:4f, 2015-01-01 01:00:29.560, -0.229, -0.323, -1.131, -0.977, -0.427, 164.429, , , , , , , 179.78, -0.747, -121.234, -78.300, 13.100, -69.807, 20.52, 0.00684, 0.6571, -0.75369, -0.00082, 407, 100,
 19:42:29.490,e8:da:bf:c6:3e:4f, 2015-01-01 01:00:29.560, -0.1, -0.333, -1.16, -3.235, -0.183, 169.617, , , , , , , 179.769, -0.758, -122.915, -78.300, 13.100, -69.807, 20.52, 0.00684, 0.6571, -0.75369, -0.00082, 407, 100,
 19:42:29.490,e8:da:bf:c6:3e:4f, 2015-01-01 01:00:29.560, -0.094, -0.354, -0.922, -1.465, -0.977, 167.786, , , , , , , 179.764, -0.758, -124.607, -78.300, 13.100, -69.807, 20.52, 0.00684, 0.6571, -0.75369, -0.00082, 407, 100,
 19:42:29.490,e8:da:bf:c6:3e:4f, 2015-01-01 01:00:29.560, -0.113, -0.372, -0.783, 1.465, -1.16, 169.617, , , , , , , 179.78, -0.758, -126.288, -78.300, 13.100, -69.807, 20.52, 0.00684, 0.6571, -0.75369, -0.00082, 407, 100,
 19:42:29.491,e8:da:bf:c6:3e:4f, 2015-01-01 01:00:29.560, -0.141, -0.367, -0.941, 1.099, -1.038, 172.546, , , , , , , 179.819, -0.753, -128.007, -78.300, 13.100, -69.807, 20.52, 0.00684, 0.6571, -0.75369, -0.00082, 407, 100,
 19:42:29.491,e8:da:bf:c6:3e:4f, 2015-01-01 01:00:29.560, -0.181, -0.365, -1.14, -1.648, -1.16, 174.255, , , , , , , 179.83, -0.753, -129.743, -78.300, 13.100, -69.807, 20.52, 0.00684, 0.6571, -0.75369, -0.00082, 407, 100,
 19:42:29.491,e8:da:bf:c6:3e:4f, 2015-01-01 01:00:29.560, -0.107, -0.391, -1.082, -2.441, -0.061, 179.138, , , , , , , 179.824, -0.747, -131.517, -78.300, 13.100, -69.807, 20.52, 0.00684, 0.6571, -0.75369, -0.00082, 407, 100,
 19:42:29.491,e8:da:bf:c6:3e:4f, 2015-01-01 01:00:29.560, -0.043, -0.413, -0.9, -0.671, -0.488, 180.054, , , , , , , 179.824, -0.758, -133.319, -78.300, 13.100, -69.807, 20.52, 0.00684, 0.6571, -0.75369, -0.00082, 407, 100,
 19:42:29.491,e8:da:bf:c6:3e:4f, 2015-01-01 01:00:29.560, -0.03, -0.413, -0.866, 0.732, -0.977, 179.688, , , , , , , 179.846, -0.753, -135.115, -78.300, 13.100, -69.807, 20.52, 0.00684, 0.6571, -0.75369, -0.00082, 407, 100,
 19:42:29.492,e8:da:bf:c6:3e:4f, 2015-01-01 01:00:29.560, 0, -0.399, -1.003, -0.244, -0.427, 181.702, , , , , , , 179.868, -0.758, -136.928, -78.300, 13.100, -69.807, 20.52, 0.00684, 0.6571, -0.75369, -0.00082, 407, 100,
 19:42:29.508,e8:da:bf:c6:3e:4f, 2015-01-01 01:00:29.560, 0.021, -0.392, -1.083, -1.953, -0.366, 181.885, , , , , , , 179.874, -0.753, -138.746, -78.300, 13.100, -69.807, 20.52, 0.00684, 0.6571, -0.75369, -0.00082, 407, 100,
 19:42:29.508,e8:da:bf:c6:3e:4f, 2015-01-01 01:00:29.560, 0.053, -0.405, -0.994, -1.587, -0.916, 182.19, , , , , , , 179.874, -0.758, -140.57, -78.300, 13.100, -69.807, 20.52, 0.00684, 0.6571, -0.75369, -0.00082, 407, 100,
 19:42:29.508,e8:da:bf:c6:3e:4f, 2015-01-01 01:00:29.560, 0.04, -0.418, -0.884, 0.183, -1.404, 180.664, , , , , , , 179.885, -0.747, -142.388, -78.300, 13.100, -69.807, 20.52, 0.00684, 0.6571, -0.75369, -0.00082, 407, 100,
 19:42:29.508,e8:da:bf:c6:3e:4f, 2015-01-01 01:00:29.560, 0.021, -0.417, -0.928, 0.671, -1.221, 180.054, , , , , , , 179.912, -0.742, -144.19, -78.300, 13.100, -69.807, 20.52, 0.00684, 0.6571, -0.75369, -0.00082, 407, 100,
 19:42:29.540,e8:da:bf:c6:3e:4f, 2015-01-01 01:00:29.560, 0.01, -0.405, -1.07, -0.916, -1.282, 180.603, , , , , , , 179.929, -0.731, -145.997, -78.300, 13.100, -69.807, 20.52, 0.00684, 0.6571, -0.75369, -0.00082, 407, 100,
 19:42:29.540,e8:da:bf:c6:3e:4f, 2015-01-01 01:00:29.560, -0.055, -0.401, -1.075, -2.014, -1.953, 179.382, , , , , , , 179.929, -0.72, -147.799, -78.300, 13.100, -69.807, 20.52, 0.00684, 0.6571, -0.75369, -0.00082, 407, 100,
 19:42:29.540,e8:da:bf:c6:3e:4f, 2015-01-01 01:00:29.560, -0.076, -0.415, -0.951, -1.038, -1.404, 181.702, , , , , , , 179.929, -0.709, -149.606, -78.300, 13.100, -69.807, 20.52, 0.00497, 0.26208, -0.965, -0.00113, 407, 100,
 19:42:29.541,e8:da:bf:c6:3e:4f, 2015-01-01 01:00:29.560, -0.08, -0.427, -0.88, 0.488, -1.526, 183.289, , , , , , , 179.945, -0.698, -151.436, -78.300, 13.100, -69.807, 20.52, 0.00497, 0.26208, -0.965, -0.00113, 407, 100,
 19:42:29.687,e8:da:bf:c6:3e:4f, 2015-01-01 01:00:29.920, -0.07, -0.425, -0.963, 0.183, -0.732, 184.509, , , , , , , 179.967, -0.687, -153.276, -78.300, 13.100, -69.807, 20.52, 0.00497, 0.26208, -0.965, -0.00113, 407, 100,
 19:42:29.735,e8:da:bf:c6:3e:4f, 2015-01-01 01:00:29.920, 0, -0.424, -1.061, -1.099, 0.244, 187.256, , , , , , , 179.978, -0.692, -155.143, -78.300, 13.100, -69.807, 20.52, 0.00497, 0.26208, -0.965, -0.00113, 407, 100,
 19:42:29.736,e8:da:bf:c6:3e:4f, 2015-01-01 01:00:29.920, 0.077, -0.431, -1.042, -1.587, -0.366, 187.561, , , , , , , 179.978, -0.692, -157.022, -78.300, 13.100, -69.807, 20.52, 0.00497, 0.26208, -0.965, -0.00113, 407, 100,
 19:42:29.736,e8:da:bf:c6:3e:4f, 2015-01-01 01:00:29.920, 0.079, -0.434, -0.941, -0.793, 1.709, 187.744, , , , , , , 179.984, -0.698, -158.895, -78.300, 13.100, -69.807, 20.52, 0.00497, 0.26208, -0.965, -0.00113, 407, 100,
 19:42:29.752,e8:da:bf:c6:3e:4f, 2015-01-01 01:00:29.920, 1.581, -0.443, -0.843, 1.77, 2.197, 209.839, , , , , , , -179.995, -0.736, -160.878, -78.300, 13.100, -69.807, 20.52, 0.00497, 0.26208, -0.965, -0.00113, 407, 100,
 19:42:29.752,e8:da:bf:c6:3e:4f, 2015-01-01 01:00:29.920, 3.139, -0.338, -0.992, 6.897, -4.578, 179.81, , , , , , , -179.918, -0.698, -162.916, -78.300, 13.100, -69.807, 20.52, 0.00497, 0.26208, -0.965, -0.00113, 407, 100,
 19:42:29.752,e8:da:bf:c6:3e:4f, 2015-01-01 01:00:29.920, 4.419, -0.17, -1.173, -2.441, 10.01, 117.249, , , , , , , -179.89, -0.742, -164.306, -78.300, 13.100, -69.807, 20.52, 0.00497, 0.26208, -0.965, -0.00113, 407, 100,
 19:42:29.752,e8:da:bf:c6:3e:4f, 2015-01-01 01:00:29.920, 5.195, -0.055, -1.088, -0.183, -2.502, 64.209, , , , , , , -179.901, -0.786, -165.273, -78.300, 13.100, -69.807, 20.52, 0.00497, 0.26208, -0.965, -0.00113, 407, 100,
 19:42:29.752,e8:da:bf:c6:3e:4f, 2015-01-01 01:00:29.920, 4.205, 0.001, -0.84, 0.183, -7.385, -37.354, , , , , , , -179.896, -0.725, -165.311, -78.300, 13.100, -69.807, 20.52, 0.00497, 0.26208, -0.965, -0.00113, 407, 100,
 19:42:29.753,e8:da:bf:c6:3e:4f, 2015-01-01 01:00:29.920, 2.625, -0.04, -0.8, 2.258, -14.648, -83.13, , , , , , , -179.89, -0.615, -164.691, -78.300, 13.100, -69.807, 20.52, 0.00497, 0.26208, -0.965, -0.00113, 407, 100,
 19:42:29.753,e8:da:bf:c6:3e:4f, 2015-01-01 01:00:29.920, 0.588, -0.063, -0.93, 0.61, -1.343, -131.775, , , , , , , -179.874, -0.522, -163.553, -78.300, 13.100, -69.807, 20.52, 0.00497, 0.26208, -0.965, -0.00113, 407, 100,
 19:42:29.753,e8:da:bf:c6:3e:4f, 2015-01-01 01:00:29.920, -0.965, -0.075, -1.153, -3.418, -0.854, -130.188, , , , , , , -179.901, -0.527, -162.219, -78.300, 13.100, -69.807, 20.52, 0.00497, 0.26208, -0.965, -0.00113, 407, 100,
 19:42:29.753,e8:da:bf:c6:3e:4f, 2015-01-01 01:00:29.920, -2.146, -0.113, -1.211, -5.432, -10.62, -106.628, , , , , , , -179.951, -0.445, -161.06, -78.300, 13.100, -69.807, 20.52, 0.00497, 0.26208, -0.965, -0.00113, 407, 100,
 19:42:29.753,e8:da:bf:c6:3e:4f, 2015-01-01 01:00:29.920, -3.43, -0.146, -1.098, -5.005, -2.136, -80.078, , , , , , , 179.984, -0.379, -160.104, -78.300, 13.100, -69.807, 20.52, 0.00497, 0.26208, -0.965, -0.00113, 407, 100,
 19:42:29.753,e8:da:bf:c6:3e:4f, 2015-01-01 01:00:29.920, -3.524, -0.19, -0.778, -0.854, 1.77, -10.925, , , , , , , 179.956, -0.385, -159.681, -78.300, 13.100, -69.807, 20.52, 0.00497, 0.26208, -0.965, -0.00113, 407, 100,
 19:42:29.754,e8:da:bf:c6:3e:4f, 2015-01-01 01:00:29.920, -2.88, -0.153, -0.594, 3.235, 7.385, 36.926, , , , , , , 179.973, -0.428, -159.851, -78.300, 13.100, -69.807, 20.52, 0.00497, 0.26208, -0.965, -0.00113, 407, 100,
 19:42:29.754,e8:da:bf:c6:3e:4f, 2015-01-01 01:00:29.920, -1.314, -0.104, -0.732, 2.869, 11.658, 85.754, , , , , , , -179.984, -0.538, -160.494, -78.300, 13.100, -69.807, 20.52, 0.00497, 0.26208, -0.965, -0.00113, 407, 100,
 19:42:29.754,e8:da:bf:c6:3e:4f, 2015-01-01 01:00:29.920, -0.148, -0.046, -1.015, 1.587, 10.193, 95.947, , , , , , , -179.962, -0.648, -161.45, -78.300, 13.100, -69.807, 20.52, 0.00497, 0.26208, -0.965, -0.00113, 407, 100,
 19:42:29.754,e8:da:bf:c6:3e:4f, 2015-01-01 01:00:29.920, 0.32, -0.047, -1.242, -0.305, 2.441, 91.187, , , , , , , -179.94, -0.687, -162.378, -78.300, 13.100, -69.807, 20.52, 0.00497, 0.26208, -0.965, -0.00113, 407, 100,
 19:42:29.754,e8:da:bf:c6:3e:4f, 2015-01-01 01:00:29.920, 1.98, -0.106, -1.157, -1.16, 1.221, 107.788, , , , , , , -179.951, -0.742, -163.361, -78.300, 13.100, -69.807, 20.52, 0.00497, 0.26208, -0.965, -0.00113, 407, 100,
 19:42:29.786,e8:da:bf:c6:3e:4f, 2015-01-01 01:00:29.920, 2.955, -0.067, -0.98, 4.211, -4.395, 61.035, , , , , , , -179.907, -0.692, -164.279, -78.300, 13.100, -69.807, 20.52, 0.00497, 0.26208, -0.965, -0.00113, 407, 100,
 19:42:29.786,e8:da:bf:c6:3e:4f, 2015-01-01 01:00:29.920, 3.151, -0.001, -0.925, -0.671, 2.747, 4.517, , , , , , , -179.896, -0.703, -164.509, -78.300, 13.100, -69.807, 20.52, 0.00497, 0.26208, -0.965, -0.00113, 407, 100,
 19:42:29.786,e8:da:bf:c6:3e:4f, 2015-01-01 01:00:29.920, 2.543, 0.054, -0.988, 0.61, -8.179, -36.621, , , , , , , -179.89, -0.67, -164.383, -78.300, 13.100, -69.807, 20.52, 0.00497, 0.26208, -0.965, -0.00113, 407, 100,
 19:42:29.786,e8:da:bf:c6:3e:4f, 2015-01-01 01:00:29.920, 1.297, 0.026, -1.01, -3.784, -3.235, -80.994, , , , , , , -179.918, -0.604, -163.718, -78.300, 13.100, -69.807, 20.52, 0.00497, 0.26208, -0.965, -0.00113, 407, 100,
 19:42:29.970,e8:da:bf:c6:3e:4f, 2015-01-01 01:00:29.920, 0.484, -0.045, -0.864, 0.366, -2.625, -85.083, , , , , , , -179.94, -0.588, -162.894, -78.300, 13.100, -69.807, 20.52, 0.00497, 0.26208, -0.965, -0.00113, 407, 100,
 19:42:30.024,e8:da:bf:c6:3e:4f, 2015-01-01 01:00:29.920, -0.176, -0.059, -0.867, 1.099, 1.709, -100.403, , , , , , , -179.934, -0.577, -161.955, -78.300, 13.100, -69.807, 20.52, 0.00458, 0.15591, -0.9877, -0.00064, 407, 100,
 19:42:30.024,e8:da:bf:c6:3e:4f, 2015-01-01 01:00:30.305, -1.122, -0.077, -1.064, -0.305, -6.165, -100.342, , , , , , , -179.934, -0.555, -160.939, -78.300, 13.100, -69.807, 20.52, 0.00458, 0.15591, -0.9877, -0.00064, 407, 100,
 19:42:30.024,e8:da:bf:c6:3e:4f, 2015-01-01 01:00:30.305, -1.953, -0.092, -1.289, -5.127, -4.272, -74.89, , , , , , , -179.967, -0.5, -160.043, -78.300, 13.100, -69.807, 20.52, 0.00458, 0.15591, -0.9877, -0.00064, 407, 100,
 19:42:30.041,e8:da:bf:c6:3e:4f, 2015-01-01 01:00:30.305, -2.579, -0.107, -1.141, -4.761, -2.991, -42.542, , , , , , , 179.973, -0.461, -159.478, -78.300, 13.100, -69.807, 20.52, 0.00458, 0.15591, -0.9877, -0.00064, 407, 100,
