Time,Device name,Chip Time(),Acceleration X(g),Acceleration Y(g),Acceleration Z(g),Angular velocity X(°/s),Angular velocity Y(°/s),Angular velocity Z(°/s),ShiftX(mm),ShiftY(mm),ShiftZ(mm),SpeedX(mm/s),SpeedY(mm/s),SpeedZ(mm/s),Angle X(°),Angle Y(°),Angle Z(°),Magnetic field X(ʯt),Magnetic field Y(ʯt),Magnetic field Z(ʯt),Temperature(℃),Quaternions 0(),Quaternions 1(),Quaternions 2(),Quaternions 3(),Raw power(),Power Percent(%)()
 19:44:24.325,e8:da:bf:c6:3e:4f, 2015-01-01 01:02:23.740, 0.01, 0.007, -0.981, 0, 0, -0.183, , , , , , , 179.769, -0.791, -129.139, -78.300, 13.100, -69.807, 20.44, 0.00638, 0.42935, -0.90305, -0.00119, 405, 100,
 19:44:24.325,e8:da:bf:c6:3e:4f, 2015-01-01 01:02:23.740, 0.01, 0.007, -0.981, 0, 0, -0.183, , , , , , , 179.769, -0.791, -129.139, -78.300, 13.100, -69.807, 20.44, 0.00638, 0.42935, -0.90305, -0.00119, 405, 100,
 19:44:24.325,e8:da:bf:c6:3e:4f, 2015-01-01 01:02:23.740, 0.01, 0.007, -0.98, 0, 0, -0.183, , , , , , , 179.769, -0.791, -129.139, -78.300, 13.100, -69.807, 20.44, 0.00638, 0.42935, -0.90305, -0.00119, 405, 100,
 19:44:24.325,e8:da:bf:c6:3e:4f, 2015-01-01 01:02:23.740, 0.011, 0.007, -0.981, 0, 0, -0.183, , , , , , , 179.769, -0.791, -129.139, -78.300, 13.100, -69.807, 20.44, 0.00638, 0.42935, -0.90305, -0.00119, 405, 100,
 19:44:24.325,e8:da:bf:c6:3e:4f, 2015-01-01 01:02:23.740, 0.01, 0.007, -0.981, 0, 0, -0.183, , , , , , , 179.769, -0.791, -129.139, -78.300, 13.100, -69.807, 20.44, 0.00638, 0.42935, -0.90305, -0.00119, 405, 100,
 19:44:24.326,e8:da:bf:c6:3e:4f, 2015-01-01 01:02:23.740, 0.008, 0.007, -0.981, 0, 0, -0.183, , , , , , , 179.769, -0.791, -129.139, -78.300, 13.100, -69.807, 20.44, 0.00638, 0.42935, -0.90305, -0.00119, 405, 100,
 19:44:24.326,e8:da:bf:c6:3e:4f, 2015-01-01 01:02:23.740, 0.01, 0.007, -0.981, 0, 0, -0.122, , , , , , , 179.769, -0.791, -129.139, -78.300, 13.100, -69.807, 20.44, 0.00638, 0.42935, -0.90305, -0.00119, 405, 100,
 19:44:24.326,e8:da:bf:c6:3e:4f, 2015-01-01 01:02:23.740, 0.01, 0.007, -0.981, 0, 0, -0.122, , , , , , , 179.769, -0.791, -129.139, -78.300, 13.100, -69.807, 20.44, 0.00638, 0.42935, -0.90305, -0.00119, 405, 100,
 19:44:24.412,e8:da:bf:c6:3e:4f, 2015-01-01 01:02:23.740, 0.01, 0.007, -0.98, 0, 0, -0.183, , , , , , , 179.769, -0.791, -129.139, -78.300, 13.100, -69.807, 20.44, 0.00638, 0.42935, -0.90305, -0.00119, 405, 100,
 19:44:24.413,e8:da:bf:c6:3e:4f, 2015-01-01 01:02:23.740, 0.011, 0.007, -0.981, 0, 0, -0.183, , , , , , , 179.769, -0.791, -129.139, -78.300, 13.100, -69.807, 20.44, 0.00638, 0.42935, -0.90305, -0.00119, 405, 100,
 19:44:24.413,e8:da:bf:c6:3e:4f, 2015-01-01 01:02:23.740, 0.01, 0.007, -0.981, 0, 0, -0.183, , , , , , , 179.769, -0.791, -129.139, -78.300, 13.100, -69.807, 20.44, 0.00638, 0.42935, -0.90305, -0.00119, 405, 100,
 19:44:24.413,e8:da:bf:c6:3e:4f, 2015-01-01 01:02:23.740, 0.011, 0.007, -0.98, 0, 0, -0.183, , , , , , , 179.769, -0.791, -129.139, -78.300, 13.100, -69.807, 20.44, 0.00638, 0.42935, -0.90305, -0.00119, 405, 100,
 19:44:24.438,e8:da:bf:c6:3e:4f, 2015-01-01 01:02:23.740, 0.01, 0.007, -0.981, 0, 0, -0.183, , , , , , , 179.769, -0.791, -129.139, -78.300, 13.100, -69.807, 20.44, 0.00638, 0.42935, -0.90305, -0.00119, 405, 100,
 19:44:24.439,e8:da:bf:c6:3e:4f, 2015-01-01 01:02:23.740, 0.009, 0.007, -0.981, 0, 0, -0.183, , , , , , , 179.769, -0.791, -129.139, -78.300, 13.100, -69.807, 20.44, 0.00638, 0.42935, -0.90305, -0.00119, 405, 100,
 19:44:24.439,e8:da:bf:c6:3e:4f, 2015-01-01 01:02:23.740, 0.01, 0.007, -0.981, 0, 0, -0.183, , , , , , , 179.769, -0.791, -129.139, -78.300, 13.100, -69.807, 20.44, 0.00638, 0.42935, -0.90305, -0.00119, 405, 100,
 19:44:24.439,e8:da:bf:c6:3e:4f, 2015-01-01 01:02:23.740, 0.01, 0.007, -0.98, 0, -0.061, -0.183, , , , , , , 179.769, -0.791, -129.139, -78.300, 13.100, -69.807, 20.44, 0.00638, 0.42935, -0.90305, -0.00119, 405, 100,
 19:44:24.482,e8:da:bf:c6:3e:4f, 2015-01-01 01:02:23.740, 0.009, 0.007, -0.98, 0, 0, -0.183, , , , , , , 179.769, -0.791, -129.139, -78.300, 13.100, -69.807, 20.44, 0.00638, 0.42935, -0.90305, -0.00119, 405, 100,
 19:44:24.482,e8:da:bf:c6:3e:4f, 2015-01-01 01:02:23.740, 0.01, 0.007, -0.98, 0, 0, -0.183, , , , , , , 179.769, -0.791, -129.139, -78.300, 13.100, -69.807, 20.44, 0.00638, 0.42935, -0.90305, -0.00119, 405, 100,
 19:44:24.482,e8:da:bf:c6:3e:4f, 2015-01-01 01:02:23.740, 0.01, 0.007, -0.981, 0, 0, -0.183, , , , , , , 179.769, -0.791, -129.139, -78.300, 13.100, -69.807, 20.44, 0.00638, 0.42935, -0.90305, -0.00119, 405, 100,
 19:44:24.483,e8:da:bf:c6:3e:4f, 2015-01-01 01:02:23.740, 0.01, 0.007, -0.981, 0, 0, -0.183, , , , , , , 179.769, -0.791, -129.139, -78.300, 13.100, -69.807, 20.44, 0.00638, 0.42935, -0.90305, -0.00119, 405, 100,
 19:44:24.516,e8:da:bf:c6:3e:4f, 2015-01-01 01:02:23.740, 0.011, 0.007, -0.98, 0, 0, -0.183, , , , , , , 179.769, -0.791, -129.139, -78.300, 13.100, -69.807, 20.44, 0.00638, 0.42935, -0.90305, -0.00119, 405, 100,
 19:44:24.517,e8:da:bf:c6:3e:4f, 2015-01-01 01:02:23.740, 0.012, 0.007, -0.981, 0, 0, -0.183, , , , , , , 179.769, -0.791, -129.139, -78.300, 13.100, -69.807, 20.44, 0.00641, 0.42917, -0.90314, -0.00116, 405, 100,
 19:44:24.517,e8:da:bf:c6:3e:4f, 2015-01-01 01:02:23.740, 0.015, 0.008, -0.981, 0, -0.061, -0.183, , , , , , , 179.769, -0.791, -129.139, -78.300, 13.100, -69.807, 20.44, 0.00641, 0.42917, -0.90314, -0.00116, 405, 100,
 19:44:24.517,e8:da:bf:c6:3e:4f, 2015-01-01 01:02:23.740, 0.021, 0.007, -0.979, 0, 0.61, -0.061, , , , , , , 179.769, -0.791, -129.139, -78.300, 13.100, -69.807, 20.44, 0.00641, 0.42917, -0.90314, -0.00116, 405, 100,
 19:44:24.533,e8:da:bf:c6:3e:4f, 2015-01-01 01:02:23.740, 0.072, 0.005, -0.977, 0, 1.282, 2.258, , , , , , , 179.769, -0.791, -129.139, -78.300, 13.100, -69.807, 20.44, 0.00641, 0.42917, -0.90314, -0.00116, 405, 100,
 19:44:24.533,e8:da:bf:c6:3e:4f, 2015-01-01 01:02:23.740, 0.327, 0.002, -0.978, 0.244, 0.61, 6.775, , , , , , , 179.769, -0.802, -129.194, -78.300, 13.100, -69.807, 20.44, 0.00641, 0.42917, -0.90314, -0.00116, 405, 100,
 19:44:24.533,e8:da:bf:c6:3e:4f, 2015-01-01 01:02:23.740, 0.358, 0.018, -0.987, 0.061, -0.305, -3.418, , , , , , , 179.775, -0.807, -129.221, -78.300, 13.100, -69.807, 20.44, 0.00641, 0.42917, -0.90314, -0.00116, 405, 100,
 19:44:24.533,e8:da:bf:c6:3e:4f, 2015-01-01 01:02:23.740, 0.136, 0.022, -0.992, -0.305, -1.16, -15.808, , , , , , , 179.769, -0.791, -129.1, -78.300, 13.100, -69.807, 20.44, 0.00641, 0.42917, -0.90314, -0.00116, 405, 100,
 19:44:24.565,e8:da:bf:c6:3e:4f, 2015-01-01 01:02:24.065, 0.016, 0.009, -0.982, -0.061, -0.977, -13.428, , , , , , , 179.764, -0.78, -128.958, -78.300, 13.100, -69.807, 20.44, 0.00641, 0.42917, -0.90314, -0.00116, 405, 100,
 19:44:24.565,e8:da:bf:c6:3e:4f, 2015-01-01 01:02:24.065, -0.04, 0.004, -0.973, 0, -0.488, -13.428, , , , , , , 179.764, -0.775, -128.826, -78.300, 13.100, -69.807, 20.44, 0.00641, 0.42917, -0.90314, -0.00116, 405, 100,
 19:44:24.565,e8:da:bf:c6:3e:4f, 2015-01-01 01:02:24.065, -0.071, 0.003, -0.972, 0.061, 0, -13.306, , , , , , , 179.764, -0.769, -128.694, -78.300, 13.100, -69.807, 20.44, 0.00641, 0.42917, -0.90314, -0.00116, 405, 100,
 19:44:24.565,e8:da:bf:c6:3e:4f, 2015-01-01 01:02:24.065, -0.074, 0.002, -0.979, 0.061, -0.122, -11.169, , , , , , , 179.764, -0.769, -128.573, -78.300, 13.100, -69.807, 20.44, 0.00641, 0.42917, -0.90314, -0.00116, 405, 100,
 19:44:24.736,e8:da:bf:c6:3e:4f, 2015-01-01 01:02:24.065, -0.067, 0.003, -0.984, 0, 0, -9.644, , , , , , , 179.764, -0.769, -128.474, -78.300, 13.100, -69.807, 20.44, 0.00641, 0.42917, -0.90314, -0.00116, 405, 100,
 19:44:24.920,e8:da:bf:c6:3e:4f, 2015-01-01 01:02:24.065, -0.062, 0.005, -0.985, 0, 0, -8.423, , , , , , , 179.764, -0.769, -128.386, -78.300, 13.100, -69.807, 20.44, 0.00641, 0.42917, -0.90314, -0.00116, 405, 100,
 19:44:24.920,e8:da:bf:c6:3e:4f, 2015-01-01 01:02:24.425, -0.065, 0.005, -0.981, 0, -0.244, -7.874, , , , , , , 179.764, -0.764, -128.304, -78.300, 13.100, -69.807, 20.44, 0.00638, 0.43384, -0.90091, -0.00122, 405, 100,
 19:44:24.920,e8:da:bf:c6:3e:4f, 2015-01-01 01:02:24.425, -0.086, 0.006, -0.975, 0.061, -0.305, -7.996, , , , , , , 179.758, -0.764, -128.227, -78.300, 13.100, -69.807, 20.44, 0.00638, 0.43384, -0.90091, -0.00122, 405, 100,
 19:44:24.936,e8:da:bf:c6:3e:4f, 2015-01-01 01:02:24.425, -0.12, 0.006, -0.977, 0.061, -0.061, -7.69, , , , , , , 179.764, -0.758, -128.15, -78.300, 13.100, -69.807, 20.44, 0.00638, 0.43384, -0.90091, -0.00122, 405, 100,
 19:44:24.936,e8:da:bf:c6:3e:4f, 2015-01-01 01:02:24.425, -0.179, 0.005, -0.986, 0, 0.061, -6.042, , , , , , , 179.764, -0.758, -128.079, -78.300, 13.100, -69.807, 20.44, 0.00638, 0.43384, -0.90091, -0.00122, 405, 100,
 19:44:24.936,e8:da:bf:c6:3e:4f, 2015-01-01 01:02:24.425, -0.132, 0, -0.99, 0, 0.061, -0.183, , , , , , , 179.758, -0.758, -128.051, -78.300, 13.100, -69.807, 20.44, 0.00638, 0.43384, -0.90091, -0.00122, 405, 100,
 19:44:24.936,e8:da:bf:c6:3e:4f, 2015-01-01 01:02:24.425, -0.091, 0.002, -0.981, 0, 0.244, 1.709, , , , , , , 179.758, -0.764, -128.068, -78.300, 13.100, -69.807, 20.44, 0.00638, 0.43384, -0.90091, -0.00122, 405, 100,
 19:44:24.936,e8:da:bf:c6:3e:4f, 2015-01-01 01:02:24.425, -0.045, 0.004, -0.976, 0, 0.427, 2.93, , , , , , , 179.758, -0.764, -128.09, -78.300, 13.100, -69.807, 20.44, 0.00638, 0.43384, -0.90091, -0.00122, 405, 100,
 19:44:24.936,e8:da:bf:c6:3e:4f, 2015-01-01 01:02:24.425, -0.006, 0.006, -0.982, 0, 0.305, 4.028, , , , , , , 179.764, -0.769, -128.134, -78.300, 13.100, -69.807, 20.44, 0.00638, 0.43384, -0.90091, -0.00122, 405, 100,
 19:44:24.937,e8:da:bf:c6:3e:4f, 2015-01-01 01:02:24.425, -0.001, 0.008, -0.983, -0.061, 0.061, 3.418, , , , , , , 179.758, -0.775, -128.172, -78.300, 13.100, -69.807, 20.44, 0.00638, 0.43384, -0.90091, -0.00122, 405, 100,
 19:44:24.937,e8:da:bf:c6:3e:4f, 2015-01-01 01:02:24.425, 0.005, 0.006, -0.976, 0, 0.061, 4.028, , , , , , , 179.758, -0.775, -128.21, -78.300, 13.100, -69.807, 20.44, 0.00638, 0.43384, -0.90091, -0.00122, 405, 100,
 19:44:24.937,e8:da:bf:c6:3e:4f, 2015-01-01 01:02:24.425, 0.007, 0.006, -0.974, 0, 0.122, 3.906, , , , , , , 179.764, -0.775, -128.249, -78.300, 13.100, -69.807, 20.44, 0.00638, 0.43384, -0.90091, -0.00122, 405, 100,
 19:44:24.937,e8:da:bf:c6:3e:4f, 2015-01-01 01:02:24.425, 0.015, 0.007, -0.983, 0, 0.122, 4.15, , , , , , , 179.764, -0.78, -128.293, -78.300, 13.100, -69.807, 20.44, 0.00638, 0.43384, -0.90091, -0.00122, 405, 100,
 19:44:24.937,e8:da:bf:c6:3e:4f, 2015-01-01 01:02:24.425, 0.021, 0.008, -0.99, -0.122, 0.061, 3.967, , , , , , , 179.764, -0.78, -128.337, -78.300, 13.100, -69.807, 20.44, 0.00638, 0.43384, -0.90091, -0.00122, 405, 100,
 19:44:24.937,e8:da:bf:c6:3e:4f, 2015-01-01 01:02:24.425, 0.034, 0.008, -0.985, -0.122, 0.305, 4.028, , , , , , , 179.764, -0.786, -128.381, -78.300, 13.100, -69.807, 20.44, 0.00638, 0.43384, -0.90091, -0.00122, 405, 100,
 19:44:24.937,e8:da:bf:c6:3e:4f, 2015-01-01 01:02:24.425, 0.044, 0.007, -0.975, 0, 0, 3.784, , , , , , , 179.764, -0.786, -128.419, -78.300, 13.100, -69.807, 20.44, 0.00638, 0.43384, -0.90091, -0.00122, 405, 100,
 19:44:24.937,e8:da:bf:c6:3e:4f, 2015-01-01 01:02:24.425, 0.039, 0.007, -0.975, 0, 0, 2.93, , , , , , , 179.764, -0.786, -128.458, -78.300, 13.100, -69.807, 20.44, 0.00638, 0.43384, -0.90091, -0.00122, 405, 100,
 19:44:24.958,e8:da:bf:c6:3e:4f, 2015-01-01 01:02:24.425, 0.04, 0.008, -0.983, 0, 0.061, 2.686, , , , , , , 179.764, -0.786, -128.485, -78.300, 13.100, -69.807, 20.44, 0.00638, 0.43384, -0.90091, -0.00122, 405, 100,
 19:44:24.958,e8:da:bf:c6:3e:4f, 2015-01-01 01:02:24.425, 0.044, 0.008, -0.987, 0, 0.061, 2.258, , , , , , , 179.764, -0.791, -128.513, -78.300, 13.100, -69.807, 20.44, 0.00638, 0.43384, -0.90091, -0.00122, 405, 100,
 19:44:24.958,e8:da:bf:c6:3e:4f, 2015-01-01 01:02:24.425, 0.048, 0.008, -0.982, -0.061, 0, 1.831, , , , , , , 179.764, -0.791, -128.535, -78.300, 13.100, -69.807, 20.44, 0.00638, 0.43384, -0.90091, -0.00122, 405, 100,
 19:44:24.958,e8:da:bf:c6:3e:4f, 2015-01-01 01:02:24.425, 0.049, 0.007, -0.976, 0, -0.061, 1.16, , , , , , , 179.764, -0.791, -128.551, -78.300, 13.100, -69.807, 20.44, 0.00638, 0.43384, -0.90091, -0.00122, 405, 100,
 19:44:24.958,e8:da:bf:c6:3e:4f, 2015-01-01 01:02:24.425, 0.044, 0.008, -0.978, 0, -0.061, 0.549, , , , , , , 179.764, -0.791, -128.562, -78.300, 13.100, -69.807, 20.44, 0.00638, 0.43384, -0.90091, -0.00122, 405, 100,
 19:44:24.959,e8:da:bf:c6:3e:4f, 2015-01-01 01:02:24.425, 0.038, 0.009, -0.985, 0, -0.061, 0.183, , , , , , , 179.764, -0.791, -128.568, -78.300, 13.100, -69.807, 20.44, 0.00638, 0.43384, -0.90091, -0.00122, 405, 100,
 19:44:24.959,e8:da:bf:c6:3e:4f, 2015-01-01 01:02:24.425, 0.037, 0.009, -0.985, -0.061, 0, -0.061, , , , , , , 179.764, -0.791, -128.573, -78.300, 13.100, -69.807, 20.44, 0.00638, 0.43384, -0.90091, -0.00122, 405, 100,
 19:44:24.959,e8:da:bf:c6:3e:4f, 2015-01-01 01:02:24.425, 0.036, 0.008, -0.978, 0, 0, -0.549, , , , , , , 179.758, -0.791, -128.568, -78.300, 13.100, -69.807, 20.44, 0.00638, 0.43384, -0.90091, -0.00122, 405, 100,
 19:44:24.959,e8:da:bf:c6:3e:4f, 2015-01-01 01:02:24.425, 0.032, 0.008, -0.976, 0, 0, -0.977, , , , , , , 179.764, -0.791, -128.562, -78.300, 13.100, -69.807, 20.44, 0.00638, 0.43384, -0.90091, -0.00122, 405, 100,
 19:44:24.959,e8:da:bf:c6:3e:4f, 2015-01-01 01:02:24.425, 0.028, 0.008, -0.979, 0.061, 0, -1.282, , , , , , , 179.764, -0.791, -128.557, -78.300, 13.100, -69.807, 20.44, 0.00638, 0.43384, -0.90091, -0.00122, 405, 100,
 19:44:24.959,e8:da:bf:c6:3e:4f, 2015-01-01 01:02:24.425, 0.025, 0.008, -0.985, 0, -0.061, -1.465, , , , , , , 179.764, -0.786, -128.54, -78.300, 13.100, -69.807, 20.44, 0.00638, 0.43384, -0.90091, -0.00122, 405, 100,
 19:44:24.959,e8:da:bf:c6:3e:4f, 2015-01-01 01:02:24.425, 0.022, 0.008, -0.985, 0, -0.061, -1.587, , , , , , , 179.764, -0.786, -128.529, -78.300, 13.100, -69.807, 20.44, 0.00638, 0.43384, -0.90091, -0.00122, 405, 100,
 19:44:24.959,e8:da:bf:c6:3e:4f, 2015-01-01 01:02:24.425, 0.022, 0.007, -0.979, 0, -0.061, -1.77, , , , , , , 179.764, -0.786, -128.513, -78.300, 13.100, -69.807, 20.44, 0.00638, 0.43384, -0.90091, -0.00122, 405, 100,
 19:44:24.959,e8:da:bf:c6:3e:4f, 2015-01-01 01:02:24.425, 0.02, 0.007, -0.977, 0, -0.061, -1.953, , , , , , , 179.764, -0.786, -128.496, -78.300, 13.100, -69.807, 20.44, 0.00638, 0.43384, -0.90091, -0.00122, 405, 100,
 19:44:24.960,e8:da:bf:c6:3e:4f, 2015-01-01 01:02:24.425, 0.017, 0.007, -0.98, 0, -0.061, -2.075, , , , , , , 179.764, -0.786, -128.48, -78.300, 13.100, -69.807, 20.44, 0.00638, 0.43384, -0.90091, -0.00122, 405, 100,
 19:44:24.960,e8:da:bf:c6:3e:4f, 2015-01-01 01:02:24.425, 0.013, 0.007, -0.984, 0, -0.061, -2.136, , , , , , , 179.764, -0.786, -128.458, -78.300, 13.100, -69.807, 20.44, 0.00638, 0.43384, -0.90091, -0.00122, 405, 100,
 19:44:24.960,e8:da:bf:c6:3e:4f, 2015-01-01 01:02:24.425, 0.008, 0.007, -0.983, 0, -0.061, -2.136, , , , , , , 179.764, -0.786, -128.436, -78.300, 13.100, -69.807, 20.44, 0.00638, 0.43384, -0.90091, -0.00122, 405, 100,
 19:44:24.960,e8:da:bf:c6:3e:4f, 2015-01-01 01:02:24.425, 0.006, 0.007, -0.979, 0, 0, -2.136, , , , , , , 179.758, -0.786, -128.419, -78.300, 13.100, -69.807, 20.44, 0.00638, 0.43384, -0.90091, -0.00122, 405, 100,
 19:44:25.004,e8:da:bf:c6:3e:4f, 2015-01-01 01:02:24.425, 0.004, 0.007, -0.979, 0, -0.061, -2.136, , , , , , , 179.764, -0.786, -128.397, -78.300, 13.100, -69.807, 20.44, 0.00638, 0.43384, -0.90091, -0.00122, 405, 100,
 19:44:25.004,e8:da:bf:c6:3e:4f, 2015-01-01 01:02:24.425, 0.002, 0.007, -0.981, 0, -0.061, -2.136, , , , , , , 179.758, -0.78, -128.381, -78.300, 13.100, -69.807, 20.44, 0.00638, 0.43384, -0.90091, -0.00122, 405, 100,
 19:44:25.005,e8:da:bf:c6:3e:4f, 2015-01-01 01:02:24.425, 0, 0.007, -0.981, 0, -0.061, -2.014, , , , , , , 179.758, -0.78, -128.359, -78.300, 13.100, -69.807, 20.44, 0.00638, 0.43384, -0.90091, -0.00122, 405, 100,
 19:44:25.005,e8:da:bf:c6:3e:4f, 2015-01-01 01:02:24.425, -0.003, 0.006, -0.98, 0, -0.061, -1.831, , , , , , , 179.758, -0.78, -128.342, -78.300, 13.100, -69.807, 20.44, 0.00638, 0.43384, -0.90091, -0.00122, 405, 100,
 19:44:25.021,e8:da:bf:c6:3e:4f, 2015-01-01 01:02:24.425, -0.005, 0.006, -0.98, 0, -0.061, -1.526, , , , , , , 179.758, -0.78, -128.326, -78.300, 13.100, -69.807, 20.44, 0.00638, 0.43384, -0.90091, -0.00122, 405, 100,
 19:44:25.021,e8:da:bf:c6:3e:4f, 2015-01-01 01:02:24.425, -0.005, 0.007, -0.982, 0, -0.061, -1.282, , , , , , , 179.758, -0.78, -128.315, -78.300, 13.100, -69.807, 20.44, 0.00638, 0.43384, -0.90091, -0.00122, 405, 100,
 19:44:25.021,e8:da:bf:c6:3e:4f, 2015-01-01 01:02:24.425, -0.005, 0.007, -0.984, 0, -0.061, -1.099, , , , , , , 179.758, -0.78, -128.304, -78.300, 13.100, -69.807, 20.44, 0.00638, 0.43384, -0.90091, -0.00122, 405, 100,
 19:44:25.021,e8:da:bf:c6:3e:4f, 2015-01-01 01:02:24.425, -0.007, 0.007, -0.98, 0, -0.061, -0.916, , , , , , , 179.758, -0.78, -128.293, -78.300, 13.100, -69.807, 20.44, 0.00638, 0.43384, -0.90091, -0.00122, 405, 100,
 19:44:25.062,e8:da:bf:c6:3e:4f, 2015-01-01 01:02:24.425, -0.008, 0.007, -0.978, 0, -0.061, -0.671, , , , , , , 179.758, -0.78, -128.287, -78.300, 13.100, -69.807, 20.44, 0.00638, 0.43384, -0.90091, -0.00122, 405, 100,
 19:44:25.062,e8:da:bf:c6:3e:4f, 2015-01-01 01:02:24.425, -0.008, 0.007, -0.979, 0, -0.061, -0.366, , , , , , , 179.758, -0.78, -128.287, -78.300, 13.100, -69.807, 20.44, 0.00638, 0.43384, -0.90091, -0.00122, 405, 100,
 19:44:25.062,e8:da:bf:c6:3e:4f, 2015-01-01 01:02:24.425, -0.007, 0.007, -0.983, 0, 0, -0.061, , , , , , , 179.758, -0.78, -128.287, -78.300, 13.100, -69.807, 20.44, 0.00638, 0.43384, -0.90091, -0.00122, 405, 100,
 19:44:25.062,e8:da:bf:c6:3e:4f, 2015-01-01 01:02:24.425, -0.004, 0.007, -0.983, 0, 0, 0.122, , , , , , , 179.764, -0.78, -128.287, -78.300, 13.100, -69.807, 20.44, 0.00638, 0.43384, -0.90091, -0.00122, 405, 100,
 19:44:25.148,e8:da:bf:c6:3e:4f, 2015-01-01 01:02:24.425, -0.001, 0.007, -0.98, 0, 0, 0.305, , , , , , , 179.758, -0.78, -128.293, -78.300, 13.100, -69.807, 20.44, 0.00638, 0.43384, -0.90091, -0.00122, 405, 100,
 19:44:25.166,e8:da:bf:c6:3e:4f, 2015-01-01 01:02:24.425, 0, 0.007, -0.978, 0, 0, 0.488, , , , , , , 179.758, -0.78, -128.298, -78.300, 13.100, -69.807, 20.44, 0.00638, 0.43384, -0.90091, -0.00122, 405, 100,
 19:44:25.167,e8:da:bf:c6:3e:4f, 2015-01-01 01:02:24.425, 0.002, 0.007, -0.98, 0, 0, 0.671, , , , , , , 179.764, -0.78, -128.309, -78.300, 13.100, -69.807, 20.44, 0.00638, 0.43384, -0.90091, -0.00122, 405, 100,
 19:44:25.167,e8:da:bf:c6:3e:4f, 2015-01-01 01:02:24.425, 0.005, 0.007, -0.983, 0, 0, 0.793, , , , , , , 179.764, -0.78, -128.315, -78.300, 13.100, -69.807, 20.44, 0.00638, 0.43384, -0.90091, -0.00122, 405, 100,
 19:44:25.183,e8:da:bf:c6:3e:4f, 2015-01-01 01:02:24.425, 0.008, 0.007, -0.983, 0, 0, 0.916, , , , , , , 179.764, -0.78, -128.326, -78.300, 13.100, -69.807, 20.44, 0.00638, 0.43384, -0.90091, -0.00122, 405, 100,
 19:44:25.183,e8:da:bf:c6:3e:4f, 2015-01-01 01:02:24.425, 0.009, 0.007, -0.98, 0, 0, 0.916, , , , , , , 179.764, -0.78, -128.342, -78.300, 13.100, -69.807, 20.44, 0.00638, 0.43384, -0.90091, -0.00122, 405, 100,
 19:44:25.183,e8:da:bf:c6:3e:4f, 2015-01-01 01:02:24.425, 0.009, 0.007, -0.979, 0, 0, 0.916, , , , , , , 179.764, -0.78, -128.353, -78.300, 13.100, -69.807, 20.44, 0.00638, 0.43384, -0.90091, -0.00122, 405, 100,
 19:44:25.183,e8:da:bf:c6:3e:4f, 2015-01-01 01:02:24.425, 0.009, 0.007, -0.98, 0, 0, 0.916, , , , , , , 179.764, -0.78, -128.364, -78.300, 13.100, -69.807, 20.44, 0.00638, 0.43384, -0.90091, -0.00122, 405, 100,
 19:44:25.183,e8:da:bf:c6:3e:4f, 2015-01-01 01:02:24.425, 0.011, 0.007, -0.983, 0, 0, 0.977, , , , , , , 179.764, -0.78, -128.375, -78.300, 13.100, -69.807, 20.44, 0.00638, 0.43384, -0.90091, -0.00122, 405, 100,
 19:44:25.183,e8:da:bf:c6:3e:4f, 2015-01-01 01:02:24.425, 0.015, 0.008, -0.983, 0, 0, 0.977, , , , , , , 179.758, -0.78, -128.386, -78.300, 13.100, -69.807, 20.44, 0.00638, 0.43384, -0.90091, -0.00122, 405, 100,
 19:44:25.183,e8:da:bf:c6:3e:4f, 2015-01-01 01:02:24.425, 0.018, 0.007, -0.979, 0, 0, 0.916, , , , , , , 179.758, -0.78, -128.397, -78.300, 13.100, -69.807, 20.44, 0.00638, 0.43384, -0.90091, -0.00122, 405, 100,
 19:44:25.183,e8:da:bf:c6:3e:4f, 2015-01-01 01:02:24.425, 0.02, 0.007, -0.979, 0, 0, 0.793, , , , , , , 179.758, -0.786, -128.408, -78.300, 13.100, -69.807, 20.44, 0.00638, 0.43384, -0.90091, -0.00122, 405, 100,
 19:44:25.241,e8:da:bf:c6:3e:4f, 2015-01-01 01:02:24.425, 0.02, 0.008, -0.981, 0, 0, 0.671, , , , , , , 179.758, -0.786, -128.419, -78.300, 13.100, -69.807, 20.44, 0.00635, 0.43494, -0.90036, -0.00122, 405, 100,
 19:44:25.242,e8:da:bf:c6:3e:4f, 2015-01-01 01:02:24.425, 0.02, 0.008, -0.983, 0, 0, 0.488, , , , , , , 179.758, -0.786, -128.425, -78.300, 13.100, -69.807, 20.44, 0.00635, 0.43494, -0.90036, -0.00122, 405, 100,
 19:44:25.242,e8:da:bf:c6:3e:4f, 2015-01-01 01:02:24.425, 0.021, 0.007, -0.982, 0, 0, 0.427, , , , , , , 179.758, -0.786, -128.43, -78.300, 13.100, -69.807, 20.44, 0.00635, 0.43494, -0.90036, -0.00122, 405, 100,
 19:44:25.242,e8:da:bf:c6:3e:4f, 2015-01-01 01:02:24.425, 0.021, 0.007, -0.98, 0, 0, 0.305, , , , , , , 179.758, -0.786, -128.436, -78.300, 13.100, -69.807, 20.44, 0.00635, 0.43494, -0.90036, -0.00122, 405, 100,
 19:44:25.265,e8:da:bf:c6:3e:4f, 2015-01-01 01:02:24.425, 0.021, 0.008, -0.979, 0, 0, 0.122, , , , , , , 179.764, -0.786, -128.441, -78.300, 13.100, -69.807, 20.44, 0.00635, 0.43494, -0.90036, -0.00122, 405, 100,
 19:44:25.265,e8:da:bf:c6:3e:4f, 2015-01-01 01:02:24.425, 0.021, 0.008, -0.981, 0, 0, 0, , , , , , , 179.764, -0.786, -128.447, -78.300, 13.100, -69.807, 20.44, 0.00635, 0.43494, -0.90036, -0.00122, 405, 100,
 19:44:25.265,e8:da:bf:c6:3e:4f, 2015-01-01 01:02:24.425, 0.021, 0.008, -0.982, 0, 0, -0.122, , , , , , , 179.764, -0.786, -128.447, -78.300, 13.100, -69.807, 20.44, 0.00635, 0.43494, -0.90036, -0.00122, 405, 100,
 19:44:25.265,e8:da:bf:c6:3e:4f, 2015-01-01 01:02:24.425, 0.021, 0.008, -0.981, 0, -0.061, -0.244, , , , , , , 179.758, -0.786, -128.447, -78.300, 13.100, -69.807, 20.44, 0.00635, 0.43494, -0.90036, -0.00122, 405, 100,
 19:44:25.281,e8:da:bf:c6:3e:4f, 2015-01-01 01:02:24.780, 0.02, 0.008, -0.981, 0, 0, -0.427, , , , , , , 179.764, -0.786, -128.441, -78.300, 13.100, -69.807, 20.44, 0.00635, 0.43494, -0.90036, -0.00122, 405, 100,
 19:44:25.281,e8:da:bf:c6:3e:4f, 2015-01-01 01:02:24.780, 0.019, 0.008, -0.981, 0, 0, -0.549, , , , , , , 179.764, -0.786, -128.441, -78.300, 13.100, -69.807, 20.44, 0.00635, 0.43494, -0.90036, -0.00122, 405, 100,
 19:44:25.281,e8:da:bf:c6:3e:4f, 2015-01-01 01:02:24.780, 0.017, 0.008, -0.981, 0, 0, -0.732, , , , , , , 179.764, -0.786, -128.436, -78.300, 13.100, -69.807, 20.44, 0.00635, 0.43494, -0.90036, -0.00122, 405, 100,
 19:44:25.281,e8:da:bf:c6:3e:4f, 2015-01-01 01:02:24.780, 0.014, 0.007, -0.98, 0, 0, -0.732, , , , , , , 179.764, -0.786, -128.43, -78.300, 13.100, -69.807, 20.44, 0.00635, 0.43494, -0.90036, -0.00122, 405, 100,
 19:44:25.406,e8:da:bf:c6:3e:4f, 2015-01-01 01:02:24.780, 0.012, 0.007, -0.98, 0, 0, -0.854, , , , , , , 179.764, -0.786, -128.425, -78.300, 13.100, -69.807, 20.44, 0.00635, 0.43494, -0.90036, -0.00122, 405, 100,
 19:44:25.490,e8:da:bf:c6:3e:4f, 2015-01-01 01:02:24.780, 0.011, 0.007, -0.981, 0, -0.061, -0.854, , , , , , , 179.764, -0.786, -128.419, -78.300, 13.100, -69.807, 20.44, 0.00635, 0.43494, -0.90036, -0.00122, 405, 100,
 19:44:25.490,e8:da:bf:c6:3e:4f, 2015-01-01 01:02:24.780, 0.011, 0.008, -0.982, 0, -0.061, -0.793, , , , , , , 179.764, -0.786, -128.408, -78.300, 13.100, -69.807, 20.44, 0.00635, 0.43494, -0.90036, -0.00122, 405, 100,
 19:44:25.491,e8:da:bf:c6:3e:4f, 2015-01-01 01:02:24.780, 0.01, 0.008, -0.981, 0, -0.061, -0.793, , , , , , , 179.764, -0.786, -128.403, -78.300, 13.100, -69.807, 20.44, 0.00635, 0.43494, -0.90036, -0.00122, 405, 100,
 19:44:25.507,e8:da:bf:c6:3e:4f, 2015-01-01 01:02:24.780, 0.009, 0.008, -0.98, 0, -0.061, -0.854, , , , , , , 179.764, -0.78, -128.397, -78.300, 13.100, -69.807, 20.44, 0.00635, 0.43494, -0.90036, -0.00122, 405, 100,
 19:44:25.507,e8:da:bf:c6:3e:4f, 2015-01-01 01:02:24.780, 0.007, 0.008, -0.98, 0, -0.061, -0.854, , , , , , , 179.764, -0.78, -128.392, -78.300, 13.100, -69.807, 20.44, 0.00635, 0.43494, -0.90036, -0.00122, 405, 100,
 19:44:25.507,e8:da:bf:c6:3e:4f, 2015-01-01 01:02:24.780, 0.006, 0.008, -0.98, 0, -0.061, -0.793, , , , , , , 179.764, -0.78, -128.381, -78.300, 13.100, -69.807, 20.44, 0.00635, 0.43494, -0.90036, -0.00122, 405, 100,
 19:44:25.507,e8:da:bf:c6:3e:4f, 2015-01-01 01:02:24.780, 0.005, 0.007, -0.981, 0, 0, -0.732, , , , , , , 179.764, -0.78, -128.375, -78.300, 13.100, -69.807, 20.44, 0.00635, 0.43494, -0.90036, -0.00122, 405, 100,
 19:44:25.507,e8:da:bf:c6:3e:4f, 2015-01-01 01:02:24.780, 0.005, 0.007, -0.982, 0, 0, -0.671, , , , , , , 179.764, -0.78, -128.37, -78.300, 13.100, -69.807, 20.44, 0.00635, 0.43494, -0.90036, -0.00122, 405, 100,
 19:44:25.507,e8:da:bf:c6:3e:4f, 2015-01-01 01:02:24.780, 0.004, 0.007, -0.981, 0, 0, -0.61, , , , , , , 179.764, -0.78, -128.37, -78.300, 13.100, -69.807, 20.44, 0.00635, 0.43494, -0.90036, -0.00122, 405, 100,
 19:44:25.507,e8:da:bf:c6:3e:4f, 2015-01-01 01:02:24.780, 0.004, 0.007, -0.98, 0, 0, -0.427, , , , , , , 179.758, -0.78, -128.364, -78.300, 13.100, -69.807, 20.44, 0.00635, 0.43494, -0.90036, -0.00122, 405, 100,
 19:44:25.507,e8:da:bf:c6:3e:4f, 2015-01-01 01:02:24.780, 0.004, 0.007, -0.981, 0, 0, -0.366, , , , , , , 179.758, -0.78, -128.364, -78.300, 13.100, -69.807, 20.44, 0.00635, 0.43494, -0.90036, -0.00122, 405, 100,
 19:44:25.507,e8:da:bf:c6:3e:4f, 2015-01-01 01:02:24.780, 0.005, 0.007, -0.981, 0, 0, -0.244, , , , , , , 179.764, -0.78, -128.359, -78.300, 13.100, -69.807, 20.44, 0.00635, 0.43494, -0.90036, -0.00122, 405, 100,
 19:44:25.507,e8:da:bf:c6:3e:4f, 2015-01-01 01:02:24.780, 0.006, 0.007, -0.981, 0, 0, -0.122, , , , , , , 179.764, -0.78, -128.359, -78.300, 13.100, -69.807, 20.44, 0.00635, 0.43494, -0.90036, -0.00122, 405, 100,
 19:44:25.508,e8:da:bf:c6:3e:4f, 2015-01-01 01:02:24.780, 0.006, 0.007, -0.98, 0, 0, -0.061, , , , , , , 179.764, -0.78, -128.359, -78.300, 13.100, -69.807, 20.44, 0.00635, 0.43494, -0.90036, -0.00122, 405, 100,
 19:44:25.508,e8:da:bf:c6:3e:4f, 2015-01-01 01:02:24.780, 0.006, 0.007, -0.98, 0, 0, -0.061, , , , , , , 179.764, -0.78, -128.364, -78.300, 13.100, -69.807, 20.44, 0.00635, 0.43494, -0.90036, -0.00122, 405, 100,
 19:44:25.508,e8:da:bf:c6:3e:4f, 2015-01-01 01:02:24.780, 0.006, 0.007, -0.981, 0, 0, 0, , , , , , , 179.764, -0.78, -128.364, -78.300, 13.100, -69.807, 20.44, 0.00635, 0.43494, -0.90036, -0.00122, 405, 100,
 19:44:25.508,e8:da:bf:c6:3e:4f, 2015-01-01 01:02:24.780, 0.006, 0.007, -0.982, 0, 0, 0.061, , , , , , , 179.764, -0.78, -128.364, -78.300, 13.100, -69.807, 20.44, 0.00635, 0.43494, -0.90036, -0.00122, 405, 100,
 19:44:25.508,e8:da:bf:c6:3e:4f, 2015-01-01 01:02:24.780, 0.008, 0.007, -0.981, 0, 0, 0.122, , , , , , , 179.764, -0.78, -128.37, -78.300, 13.100, -69.807, 20.44, 0.00635, 0.43494, -0.90036, -0.00122, 405, 100,
 19:44:25.508,e8:da:bf:c6:3e:4f, 2015-01-01 01:02:24.780, 0.009, 0.007, -0.981, 0, 0, 0.183, , , , , , , 179.764, -0.78, -128.375, -78.300, 13.100, -69.807, 20.44, 0.00635, 0.43494, -0.90036, -0.00122, 405, 100,
 19:44:25.524,e8:da:bf:c6:3e:4f, 2015-01-01 01:02:24.780, 0.011, 0.007, -0.98, 0, 0, 0.183, , , , , , , 179.764, -0.78, -128.375, -78.300, 13.100, -69.807, 20.44, 0.00635, 0.43494, -0.90036, -0.00122, 405, 100,
 19:44:25.524,e8:da:bf:c6:3e:4f, 2015-01-01 01:02:24.780, 0.011, 0.007, -0.98, 0, 0, 0.183, , , , , , , 179.764, -0.78, -128.381, -78.300, 13.100, -69.807, 20.44, 0.00635, 0.43494, -0.90036, -0.00122, 405, 100,
 19:44:25.524,e8:da:bf:c6:3e:4f, 2015-01-01 01:02:24.780, 0.012, 0.007, -0.981, 0, 0, 0.183, , , , , , , 179.764, -0.78, -128.386, -78.300, 13.100, -69.807, 20.44, 0.00635, 0.43494, -0.90036, -0.00122, 405, 100,
 19:44:25.524,e8:da:bf:c6:3e:4f, 2015-01-01 01:02:24.780, 0.012, 0.007, -0.981, 0, 0, 0.122, , , , , , , 179.764, -0.78, -128.386, -78.300, 13.100, -69.807, 20.44, 0.00635, 0.43494, -0.90036, -0.00122, 405, 100,
 19:44:25.731,e8:da:bf:c6:3e:4f, 2015-01-01 01:02:24.780, 0.013, 0.008, -0.981, 0, 0, 0.122, , , , , , , 179.764, -0.786, -128.392, -78.300, 13.100, -69.807, 20.44, 0.00635, 0.43518, -0.90027, -0.00122, 405, 100,
 19:44:25.758,e8:da:bf:c6:3e:4f, 2015-01-01 01:02:25.170, 0.014, 0.008, -0.981, 0, 0, 0.122, , , , , , , 179.764, -0.786, -128.397, -78.300, 13.100, -69.807, 20.44, 0.00635, 0.43518, -0.90027, -0.00122, 405, 100,
 19:44:25.759,e8:da:bf:c6:3e:4f, 2015-01-01 01:02:25.170, 0.014, 0.008, -0.98, 0, 0, 0.061, , , , , , , 179.764, -0.786, -128.397, -78.300, 13.100, -69.807, 20.44, 0.00635, 0.43518, -0.90027, -0.00122, 405, 100,
 19:44:25.759,e8:da:bf:c6:3e:4f, 2015-01-01 01:02:25.170, 0.014, 0.007, -0.98, 0, 0, 0, , , , , , , 179.764, -0.786, -128.397, -78.300, 13.100, -69.807, 20.44, 0.00635, 0.43518, -0.90027, -0.00122, 405, 100,
 19:44:25.760,e8:da:bf:c6:3e:4f, 2015-01-01 01:02:25.170, 0.014, 0.007, -0.981, 0, 0, 0, , , , , , , 179.764, -0.786, -128.403, -78.300, 13.100, -69.807, 20.44, 0.00635, 0.43518, -0.90027, -0.00122, 405, 100,
 19:44:25.760,e8:da:bf:c6:3e:4f, 2015-01-01 01:02:25.170, 0.015, 0.007, -0.981, 0, 0, 0, , , , , , , 179.764, -0.786, -128.403, -78.300, 13.100, -69.807, 20.44, 0.00635, 0.43518, -0.90027, -0.00122, 405, 100,
 19:44:25.760,e8:da:bf:c6:3e:4f, 2015-01-01 01:02:25.170, 0.015, 0.007, -0.981, 0, 0, -0.122, , , , , , , 179.764, -0.786, -128.403, -78.300, 13.100, -69.807, 20.44, 0.00635, 0.43518, -0.90027, -0.00122, 405, 100,
 19:44:25.760,e8:da:bf:c6:3e:4f, 2015-01-01 01:02:25.170, 0.015, 0.007, -0.98, 0, 0, -0.183, , , , , , , 179.764, -0.786, -128.403, -78.300, 13.100, -69.807, 20.44, 0.00635, 0.43518, -0.90027, -0.00122, 405, 100,
 19:44:25.777,e8:da:bf:c6:3e:4f, 2015-01-01 01:02:25.170, 0.014, 0.007, -0.98, 0, -0.061, -0.244, , , , , , , 179.764, -0.786, -128.403, -78.300, 13.100, -69.807, 20.44, 0.00635, 0.43518, -0.90027, -0.00122, 405, 100,
 19:44:25.777,e8:da:bf:c6:3e:4f, 2015-01-01 01:02:25.170, 0.012, 0.007, -0.98, 0, 0, -0.305, , , , , , , 179.764, -0.786, -128.403, -78.300, 13.100, -69.807, 20.44, 0.00635, 0.43518, -0.90027, -0.00122, 405, 100,
 19:44:25.777,e8:da:bf:c6:3e:4f, 2015-01-01 01:02:25.170, 0.011, 0.007, -0.98, 0, 0, -0.305, , , , , , , 179.764, -0.786, -128.403, -78.300, 13.100, -69.807, 20.44, 0.00635, 0.43518, -0.90027, -0.00122, 405, 100,
 19:44:25.778,e8:da:bf:c6:3e:4f, 2015-01-01 01:02:25.170, 0.011, 0.007, -0.981, 0, 0, -0.305, , , , , , , 179.764, -0.786, -128.397, -78.300, 13.100, -69.807, 20.44, 0.00635, 0.43518, -0.90027, -0.00122, 405, 100,
 19:44:25.778,e8:da:bf:c6:3e:4f, 2015-01-01 01:02:25.170, 0.01, 0.007, -0.982, 0, 0, -0.305, , , , , , , 179.764, -0.786, -128.397, -78.300, 13.100, -69.807, 20.44, 0.00635, 0.43518, -0.90027, -0.00122, 405, 100,
 19:44:25.778,e8:da:bf:c6:3e:4f, 2015-01-01 01:02:25.170, 0.01, 0.007, -0.981, 0, 0, -0.305, , , , , , , 179.764, -0.786, -128.397, -78.300, 13.100, -69.807, 20.44, 0.00635, 0.43518, -0.90027, -0.00122, 405, 100,
 19:44:25.779,e8:da:bf:c6:3e:4f, 2015-01-01 01:02:25.170, 0.009, 0.007, -0.98, 0, 0, -0.305, , , , , , , 179.764, -0.786, -128.397, -78.300, 13.100, -69.807, 20.44, 0.00635, 0.43518, -0.90027, -0.00122, 405, 100,
 19:44:25.779,e8:da:bf:c6:3e:4f, 2015-01-01 01:02:25.170, 0.007, 0.007, -0.98, 0, 0, -0.305, , , , , , , 179.764, -0.78, -128.392, -78.300, 13.100, -69.807, 20.44, 0.00635, 0.43518, -0.90027, -0.00122, 405, 100,
 19:44:25.779,e8:da:bf:c6:3e:4f, 2015-01-01 01:02:25.170, 0.007, 0.007, -0.98, 0, 0, -0.305, , , , , , , 179.764, -0.78, -128.392, -78.300, 13.100, -69.807, 20.44, 0.00635, 0.43518, -0.90027, -0.00122, 405, 100,
 19:44:25.779,e8:da:bf:c6:3e:4f, 2015-01-01 01:02:25.170, 0.008, 0.007, -0.981, 0, 0, -0.305, , , , , , , 179.764, -0.786, -128.392, -78.300, 13.100, -69.807, 20.44, 0.00635, 0.43518, -0.90027, -0.00122, 405, 100,
 19:44:25.780,e8:da:bf:c6:3e:4f, 2015-01-01 01:02:25.170, 0.009, 0.007, -0.981, 0, 0, -0.305, , , , , , , 179.758, -0.786, -128.386, -78.300, 13.100, -69.807, 20.44, 0.00635, 0.43518, -0.90027, -0.00122, 405, 100,
 19:44:25.793,e8:da:bf:c6:3e:4f, 2015-01-01 01:02:25.170, 0.008, 0.007, -0.98, 0, 0, -0.244, , , , , , , 179.758, -0.786, -128.386, -78.300, 13.100, -69.807, 20.44, 0.00635, 0.43518, -0.90027, -0.00122, 405, 100,
 19:44:25.809,e8:da:bf:c6:3e:4f, 2015-01-01 01:02:25.170, 0.007, 0.007, -0.98, 0, 0, -0.183, , , , , , , 179.764, -0.786, -128.386, -78.300, 13.100, -69.807, 20.44, 0.00635, 0.43518, -0.90027, -0.00122, 405, 100,
 19:44:25.809,e8:da:bf:c6:3e:4f, 2015-01-01 01:02:25.170, 0.006, 0.007, -0.981, 0, 0, -0.183, , , , , , , 179.764, -0.786, -128.386, -78.300, 13.100, -69.807, 20.44, 0.00635, 0.43518, -0.90027, -0.00122, 405, 100,
 19:44:25.809,e8:da:bf:c6:3e:4f, 2015-01-01 01:02:25.170, 0.006, 0.008, -0.981, 0, 0, -0.122, , , , , , , 179.764, -0.786, -128.386, -78.300, 13.100, -69.807, 20.44, 0.00635, 0.43518, -0.90027, -0.00122, 405, 100,
 19:44:25.809,e8:da:bf:c6:3e:4f, 2015-01-01 01:02:25.170, 0.006, 0.008, -0.981, 0, 0, -0.122, , , , , , , 179.764, -0.786, -128.386, -78.300, 13.100, -69.807, 20.44, 0.00635, 0.43518, -0.90027, -0.00122, 405, 100,
 19:44:25.890,e8:da:bf:c6:3e:4f, 2015-01-01 01:02:25.170, 0.008, 0.008, -0.98, 0, 0, -0.122, , , , , , , 179.764, -0.786, -128.386, -78.300, 13.100, -69.807, 20.44, 0.00635, 0.43518, -0.90027, -0.00122, 405, 100,
 19:44:25.890,e8:da:bf:c6:3e:4f, 2015-01-01 01:02:25.170, 0.01, 0.007, -0.98, 0, 0, -0.122, , , , , , , 179.764, -0.786, -128.392, -78.300, 13.100, -69.807, 20.44, 0.00635, 0.43518, -0.90027, -0.00122, 405, 100,
 19:44:25.890,e8:da:bf:c6:3e:4f, 2015-01-01 01:02:25.170, 0.009, 0.007, -0.981, 0, 0, -0.122, , , , , , , 179.764, -0.786, -128.392, -78.300, 13.100, -69.807, 20.44, 0.00635, 0.43518, -0.90027, -0.00122, 405, 100,
 19:44:25.890,e8:da:bf:c6:3e:4f, 2015-01-01 01:02:25.170, 0.009, 0.007, -0.981, 0, 0, -0.061, , , , , , , 179.764, -0.78, -128.392, -78.300, 13.100, -69.807, 20.44, 0.00635, 0.43518, -0.90027, -0.00122, 405, 100,
 19:44:25.924,e8:da:bf:c6:3e:4f, 2015-01-01 01:02:25.170, 0.01, 0.008, -0.981, 0, 0, -0.061, , , , , , , 179.764, -0.786, -128.392, -78.300, 13.100, -69.807, 20.44, 0.00635, 0.43518, -0.90027, -0.00122, 405, 100,
 19:44:25.924,e8:da:bf:c6:3e:4f, 2015-01-01 01:02:25.170, 0.011, 0.008, -0.981, 0, 0, -0.061, , , , , , , 179.764, -0.786, -128.392, -78.300, 13.100, -69.807, 20.44, 0.00635, 0.43518, -0.90027, -0.00122, 405, 100,
 19:44:25.924,e8:da:bf:c6:3e:4f, 2015-01-01 01:02:25.170, 0.012, 0.008, -0.98, 0, 0, -0.061, , , , , , , 179.758, -0.786, -128.392, -78.300, 13.100, -69.807, 20.44, 0.00635, 0.43518, -0.90027, -0.00122, 405, 100,
 19:44:25.924,e8:da:bf:c6:3e:4f, 2015-01-01 01:02:25.170, 0.011, 0.008, -0.98, 0, 0, -0.061, , , , , , , 179.758, -0.786, -128.392, -78.300, 13.100, -69.807, 20.44, 0.00635, 0.43518, -0.90027, -0.00122, 405, 100,
 19:44:25.951,e8:da:bf:c6:3e:4f, 2015-01-01 01:02:25.170, 0.011, 0.008, -0.981, 0, 0, -0.061, , , , , , , 179.758, -0.786, -128.397, -78.300, 13.100, -69.807, 20.44, 0.00635, 0.43518, -0.90027, -0.00122, 405, 100,
 19:44:25.951,e8:da:bf:c6:3e:4f, 2015-01-01 01:02:25.170, 0.012, 0.008, -0.981, 0, 0, -0.061, , , , , , , 179.758, -0.786, -128.397, -78.300, 13.100, -69.807, 20.44, 0.00635, 0.43518, -0.90027, -0.00122, 405, 100,
 19:44:25.951,e8:da:bf:c6:3e:4f, 2015-01-01 01:02:25.170, 0.012, 0.008, -0.981, 0, 0, -0.122, , , , , , , 179.764, -0.786, -128.397, -78.300, 13.100, -69.807, 20.44, 0.00635, 0.43518, -0.90027, -0.00122, 405, 100,
 19:44:25.951,e8:da:bf:c6:3e:4f, 2015-01-01 01:02:25.170, 0.011, 0.008, -0.981, 0, 0, -0.183, , , , , , , 179.764, -0.786, -128.397, -78.300, 13.100, -69.807, 20.44, 0.00635, 0.43518, -0.90027, -0.00122, 405, 100,
 19:44:25.951,e8:da:bf:c6:3e:4f, 2015-01-01 01:02:25.170, 0.011, 0.008, -0.981, 0, 0, -0.183, , , , , , , 179.764, -0.786, -128.397, -78.300, 13.100, -69.807, 20.44, 0.00635, 0.43518, -0.90027, -0.00122, 405, 100,
 19:44:25.952,e8:da:bf:c6:3e:4f, 2015-01-01 01:02:25.170, 0.01, 0.007, -0.981, 0, 0, -0.183, , , , , , , 179.764, -0.786, -128.397, -78.300, 13.100, -69.807, 20.44, 0.00635, 0.43518, -0.90027, -0.00122, 405, 100,
 19:44:25.952,e8:da:bf:c6:3e:4f, 2015-01-01 01:02:25.170, 0.011, 0.007, -0.981, 0, 0, -0.183, , , , , , , 179.764, -0.786, -128.397, -78.300, 13.100, -69.807, 20.44, 0.00635, 0.43518, -0.90027, -0.00122, 405, 100,
 19:44:25.952,e8:da:bf:c6:3e:4f, 2015-01-01 01:02:25.170, 0.011, 0.007, -0.981, 0, 0, -0.183, , , , , , , 179.764, -0.786, -128.397, -78.300, 13.100, -69.807, 20.44, 0.00635, 0.43518, -0.90027, -0.00122, 405, 100,
 19:44:25.968,e8:da:bf:c6:3e:4f, 2015-01-01 01:02:25.170, 0.011, 0.008, -0.98, 0, 0, -0.183, , , , , , , 179.764, -0.786, -128.397, -78.300, 13.100, -69.807, 20.44, 0.00635, 0.43518, -0.90027, -0.00122, 405, 100,
 19:44:25.968,e8:da:bf:c6:3e:4f, 2015-01-01 01:02:25.170, 0.011, 0.008, -0.98, 0, 0, -0.244, , , , , , , 179.764, -0.786, -128.397, -78.300, 13.100, -69.807, 20.44, 0.00635, 0.43518, -0.90027, -0.00122, 405, 100,
 19:44:25.968,e8:da:bf:c6:3e:4f, 2015-01-01 01:02:25.170, 0.008, 0.008, -0.98, 0, 0, -0.244, , , , , , , 179.764, -0.786, -128.392, -78.300, 13.100, -69.807, 20.44, 0.00635, 0.43518, -0.90027, -0.00122, 405, 100,
 19:44:25.968,e8:da:bf:c6:3e:4f, 2015-01-01 01:02:25.170, 0.007, 0.008, -0.981, 0, 0, -0.244, , , , , , , 179.764, -0.786, -128.392, -78.300, 13.100, -69.807, 20.44, 0.00635, 0.43518, -0.90027, -0.00122, 405, 100,
 19:44:26.039,e8:da:bf:c6:3e:4f, 2015-01-01 01:02:25.525, 0.008, 0.007, -0.981, 0, 0, -0.244, , , , , , , 179.764, -0.786, -128.392, -78.300, 13.100, -69.807, 20.44, 0.00635, 0.43521, -0.90027, -0.00122, 405, 100,
 19:44:26.039,e8:da:bf:c6:3e:4f, 2015-01-01 01:02:25.525, 0.016, 0.007, -0.981, 0, 0, -0.183, , , , , , , 179.764, -0.786, -128.392, -78.300, 13.100, -69.807, 20.44, 0.00635, 0.43521, -0.90027, -0.00122, 405, 100,
 19:44:26.039,e8:da:bf:c6:3e:4f, 2015-01-01 01:02:25.525, 0.016, 0.006, -0.979, 0, 0.854, 0.244, , , , , , , 179.764, -0.786, -128.392, -78.300, 13.100, -69.807, 20.44, 0.00635, 0.43521, -0.90027, -0.00122, 405, 100,
 19:44:26.039,e8:da:bf:c6:3e:4f, 2015-01-01 01:02:25.525, 0.214, 0.001, -0.977, 0.061, 2.808, 5.859, , , , , , , 179.764, -0.813, -128.419, -78.300, 13.100, -69.807, 20.44, 0.00635, 0.43521, -0.90027, -0.00122, 405, 100,
 19:44:26.103,e8:da:bf:c6:3e:4f, 2015-01-01 01:02:25.525, 1.068, 0.007, -1.008, 0.427, 0.305, 13, , , , , , , 179.769, -0.835, -128.54, -78.300, 13.100, -69.807, 20.44, 0.00635, 0.43521, -0.90027, -0.00122, 405, 100,
 19:44:26.103,e8:da:bf:c6:3e:4f, 2015-01-01 01:02:25.525, 1.446, 0.042, -1.042, -0.916, -0.061, -19.592, , , , , , , 179.769, -0.818, -128.502, -78.300, 13.100, -69.807, 20.44, 0.00635, 0.43521, -0.90027, -0.00122, 405, 100,
 19:44:26.103,e8:da:bf:c6:3e:4f, 2015-01-01 01:02:25.525, 1.799, 0.029, -1.014, -1.282, 1.038, -36.621, , , , , , , 179.753, -0.829, -128.205, -78.300, 13.100, -69.807, 20.44, 0.00635, 0.43521, -0.90027, -0.00122, 405, 100,
 19:44:26.103,e8:da:bf:c6:3e:4f, 2015-01-01 01:02:25.525, 1.789, 0.006, -0.924, -0.061, -0.854, -66.528, , , , , , , 179.736, -0.818, -127.689, -78.300, 13.100, -69.807, 20.44, 0.00635, 0.43521, -0.90027, -0.00122, 405, 100,
 19:44:26.141,e8:da:bf:c6:3e:4f, 2015-01-01 01:02:25.525, 1.538, -0.037, -0.889, 0.916, -1.831, -91.797, , , , , , , 179.736, -0.802, -126.876, -78.300, 13.100, -69.807, 20.44, 0.00635, 0.43521, -0.90027, -0.00122, 405, 100,
 19:44:26.166,e8:da:bf:c6:3e:4f, 2015-01-01 01:02:25.525, 1.147, -0.083, -0.938, 1.038, -2.563, -113.037, , , , , , , 179.736, -0.775, -125.843, -78.300, 13.100, -69.807, 20.44, 0.00635, 0.43521, -0.90027, -0.00122, 405, 100,
 19:44:26.166,e8:da:bf:c6:3e:4f, 2015-01-01 01:02:25.525, 0.761, -0.132, -1.005, 0.366, -1.343, -128.662, , , , , , , 179.731, -0.747, -124.623, -78.300, 13.100, -69.807, 20.44, 0.00635, 0.43521, -0.90027, -0.00122, 405, 100,
 19:44:26.166,e8:da:bf:c6:3e:4f, 2015-01-01 01:02:25.525, 0.453, -0.183, -1.026, 0, 0.61, -138.123, , , , , , , 179.72, -0.731, -123.278, -78.300, 13.100, -69.807, 20.44, 0.00635, 0.43521, -0.90027, -0.00122, 405, 100,
 19:44:26.182,e8:da:bf:c6:3e:4f, 2015-01-01 01:02:25.525, 0.223, -0.227, -0.96, 0.488, 2.38, -142.883, , , , , , , 179.709, -0.742, -121.871, -78.300, 13.100, -69.807, 20.44, 0.00635, 0.43521, -0.90027, -0.00122, 405, 100,
 19:44:26.182,e8:da:bf:c6:3e:4f, 2015-01-01 01:02:25.525, 0.166, -0.252, -0.921, 1.831, 1.892, -143.738, , , , , , , 179.709, -0.753, -120.438, -78.300, 13.100, -69.807, 20.44, 0.00635, 0.43521, -0.90027, -0.00122, 405, 100,
 19:44:26.182,e8:da:bf:c6:3e:4f, 2015-01-01 01:02:25.525, 0.125, -0.248, -1.005, 1.099, 0.427, -146.545, , , , , , , 179.709, -0.753, -118.987, -78.300, 13.100, -69.807, 20.44, 0.00635, 0.43521, -0.90027, -0.00122, 405, 100,
 19:44:26.182,e8:da:bf:c6:3e:4f, 2015-01-01 01:02:25.525, 0.024, -0.245, -1.072, -0.305, 0.549, -150.33, , , , , , , 179.698, -0.747, -117.499, -78.300, 13.100, -69.807, 20.44, 0.00635, 0.43521, -0.90027, -0.00122, 405, 100,
 19:44:26.183,e8:da:bf:c6:3e:4f, 2015-01-01 01:02:25.525, -0.064, -0.258, -1.023, -0.549, 0.671, -149.963, , , , , , , 179.676, -0.742, -115.999, -78.300, 13.100, -69.807, 20.44, 0.00635, 0.43521, -0.90027, -0.00122, 405, 100,
 19:44:26.183,e8:da:bf:c6:3e:4f, 2015-01-01 01:02:25.525, -0.083, -0.272, -0.922, 0.61, 0.916, -146.851, , , , , , , 179.659, -0.742, -114.516, -78.300, 13.100, -69.807, 20.44, 0.00635, 0.43521, -0.90027, -0.00122, 405, 100,
 19:44:26.183,e8:da:bf:c6:3e:4f, 2015-01-01 01:02:25.525, -0.077, -0.268, -0.914, 1.587, 0.549, -144.653, , , , , , , 179.659, -0.736, -113.06, -78.300, 13.100, -69.807, 20.44, 0.00635, 0.43521, -0.90027, -0.00122, 405, 100,
 19:44:26.183,e8:da:bf:c6:3e:4f, 2015-01-01 01:02:25.525, -0.117, -0.243, -1.01, 0.732, -2.991, -145.569, , , , , , , 179.659, -0.72, -111.616, -78.300, 13.100, -69.807, 20.44, 0.00635, 0.43521, -0.90027, -0.00122, 405, 100,
 19:44:26.215,e8:da:bf:c6:3e:4f, 2015-01-01 01:02:25.525, -1.759, -0.208, -1.058, -0.366, -7.263, -163.635, , , , , , , 179.648, -0.648, -110.078, -78.300, 13.100, -69.807, 20.44, 0.00635, 0.43521, -0.90027, -0.00122, 405, 100,
 19:44:26.215,e8:da:bf:c6:3e:4f, 2015-01-01 01:02:25.525, -3.086, -0.234, -1.114, 0.549, -7.385, -124.39, , , , , , , 179.654, -0.571, -108.578, -78.300, 13.100, -69.807, 20.44, 0.00635, 0.43521, -0.90027, -0.00122, 405, 100,
 19:44:26.215,e8:da:bf:c6:3e:4f, 2015-01-01 01:02:25.525, -4.346, -0.213, -1.039, -2.258, -8.545, -74.646, , , , , , , 179.626, -0.478, -107.655, -78.300, 13.100, -69.807, 20.44, 0.00635, 0.43521, -0.90027, -0.00122, 405, 100,
 19:44:26.215,e8:da:bf:c6:3e:4f, 2015-01-01 01:02:25.525, -4.696, -0.22, -0.821, 4.822, -0.061, -10.559, , , , , , , 179.654, -0.434, -107.194, -78.300, 13.100, -69.807, 20.44, 0.00635, 0.43521, -0.90027, -0.00122, 405, 100,
 19:44:26.347,e8:da:bf:c6:3e:4f, 2015-01-01 01:02:25.525, -3.967, -0.222, -0.76, 0.305, 6.165, 68.237, , , , , , , 179.681, -0.478, -107.573, -78.300, 13.100, -69.807, 20.44, 0.00635, 0.43521, -0.90027, -0.00122, 405, 100,
 19:44:26.362,e8:da:bf:c6:3e:4f, 2015-01-01 01:02:25.525, -2.624, -0.23, -0.945, -0.305, 10.803, 117.554, , , , , , , 179.687, -0.571, -108.512, -78.300, 13.100, -69.807, 20.44, 0.00598, 0.50571, -0.86261, -0.00122, 405, 100,
 19:44:26.362,e8:da:bf:c6:3e:4f, 2015-01-01 01:02:25.525, -0.87, -0.273, -1.047, -7.446, 6.958, 160.828, , , , , , , 179.643, -0.676, -109.973, -78.300, 13.100, -69.807, 20.44, 0.00598, 0.50571, -0.86261, -0.00122, 405, 100,
 19:44:26.362,e8:da:bf:c6:3e:4f, 2015-01-01 01:02:25.525, 0, -0.273, -0.888, 0.366, 7.202, 157.593, , , , , , , 179.626, -0.769, -111.577, -78.300, 13.100, -69.807, 20.44, 0.00598, 0.50571, -0.86261, -0.00122, 405, 100,
 19:44:26.378,e8:da:bf:c6:3e:4f, 2015-01-01 01:02:25.525, 0.514, -0.272, -0.909, 2.075, 3.113, 160.583, , , , , , , 179.665, -0.813, -113.154, -78.300, 13.100, -69.807, 20.44, 0.00598, 0.50571, -0.86261, -0.00122, 405, 100,
 19:44:26.378,e8:da:bf:c6:3e:4f, 2015-01-01 01:02:25.525, 1.958, -0.249, -1.263, 0.122, -4.578, 173.157, , , , , , , 179.687, -0.851, -114.868, -78.300, 13.100, -69.807, 20.44, 0.00598, 0.50571, -0.86261, -0.00122, 405, 100,
 19:44:26.378,e8:da:bf:c6:3e:4f, 2015-01-01 01:02:25.525, 1.961, -0.135, -1.279, -5.432, -3.174, 110.596, , , , , , , 179.687, -0.786, -116.296, -78.300, 13.100, -69.807, 20.44, 0.00598, 0.50571, -0.86261, -0.00122, 405, 100,
 19:44:26.378,e8:da:bf:c6:3e:4f, 2015-01-01 01:02:25.525, 1.614, -0.103, -0.845, -3.723, -1.892, 86.304, , , , , , , 179.632, -0.797, -117.213, -78.300, 13.100, -69.807, 20.44, 0.00598, 0.50571, -0.86261, -0.00122, 405, 100,
 19:44:26.378,e8:da:bf:c6:3e:4f, 2015-01-01 01:02:25.525, 0.836, -0.079, -0.539, 4.15, -5.676, 60.791, , , , , , , 179.654, -0.742, -117.966, -78.300, 13.100, -69.807, 20.44, 0.00598, 0.50571, -0.86261, -0.00122, 405, 100,
 19:44:26.378,e8:da:bf:c6:3e:4f, 2015-01-01 01:02:25.525, 0.001, -0.039, -0.729, 5.371, 1.343, 45.227, , , , , , , 179.709, -0.747, -118.466, -78.300, 13.100, -69.807, 20.44, 0.00598, 0.50571, -0.86261, -0.00122, 405, 100,
 19:44:26.378,e8:da:bf:c6:3e:4f, 2015-01-01 01:02:25.525, -0.461, -0.002, -1.25, 0.183, -4.272, 53.467, , , , , , , 179.742, -0.747, -118.954, -78.300, 13.100, -69.807, 20.44, 0.00598, 0.50571, -0.86261, -0.00122, 405, 100,
 19:44:26.378,e8:da:bf:c6:3e:4f, 2015-01-01 01:02:25.525, -1.71, 0.004, -1.454, -5.432, -8.118, 52.979, , , , , , , 179.714, -0.67, -119.504, -78.300, 13.100, -69.807, 20.44, 0.00598, 0.50571, -0.86261, -0.00122, 405, 100,
 19:44:26.394,e8:da:bf:c6:3e:4f, 2015-01-01 01:02:25.885, -2.353, -0.129, -1.138, -4.578, -4.639, 89.478, , , , , , , 179.67, -0.615, -120.168, -78.300, 13.100, -69.807, 20.44, 0.00598, 0.50571, -0.86261, -0.00122, 405, 100,
 19:44:26.394,e8:da:bf:c6:3e:4f, 2015-01-01 01:02:25.885, -2.36, -0.28, -0.638, -0.305, -0.183, 131.104, , , , , , , 179.654, -0.604, -121.322, -78.300, 13.100, -69.807, 20.44, 0.00598, 0.50571, -0.86261, -0.00122, 405, 100,
 19:44:26.394,e8:da:bf:c6:3e:4f, 2015-01-01 01:02:25.885, -1.708, -0.386, -0.525, 5.432, 4.944, 165.649, , , , , , , 179.692, -0.637, -122.811, -78.300, 13.100, -69.807, 20.44, 0.00598, 0.50571, -0.86261, -0.00122, 405, 100,
 19:44:26.394,e8:da:bf:c6:3e:4f, 2015-01-01 01:02:25.885, -0.775, -0.408, -0.875, 2.38, 4.272, 191.711, , , , , , , 179.753, -0.703, -124.64, -78.300, 13.100, -69.807, 20.44, 0.00598, 0.50571, -0.86261, -0.00122, 405, 100,
 19:44:26.426,e8:da:bf:c6:3e:4f, 2015-01-01 01:02:25.885, -0.206, -0.393, -1.261, -1.038, 6.104, 194.763, , , , , , , 179.78, -0.764, -126.579, -78.300, 13.100, -69.807, 20.44, 0.00598, 0.50571, -0.86261, -0.00122, 405, 100,
 19:44:26.426,e8:da:bf:c6:3e:4f, 2015-01-01 01:02:25.885, 0.103, -0.423, -1.286, -4.578, 0.854, 200.684, , , , , , , 179.764, -0.818, -128.562, -78.300, 13.100, -69.807, 20.44, 0.00598, 0.50571, -0.86261, -0.00122, 405, 100,
 19:44:26.426,e8:da:bf:c6:3e:4f, 2015-01-01 01:02:25.885, 0.224, -0.48, -0.965, -2.319, -0.549, 198.669, , , , , , , 179.747, -0.824, -130.567, -78.300, 13.100, -69.807, 20.44, 0.00598, 0.50571, -0.86261, -0.00122, 405, 100,
 19:44:26.426,e8:da:bf:c6:3e:4f, 2015-01-01 01:02:25.885, 0.288, -0.505, -0.74, 1.587, 0.122, 193.665, , , , , , , 179.769, -0.84, -132.528, -78.300, 13.100, -69.807, 20.44, 0.00598, 0.50571, -0.86261, -0.00122, 405, 100,
 19:44:26.458,e8:da:bf:c6:3e:4f, 2015-01-01 01:02:25.885, 0.5, -0.459, -0.922, 1.831, -0.488, 192.383, , , , , , , 179.813, -0.846, -134.456, -78.300, 13.100, -69.807, 20.44, 0.00598, 0.50571, -0.86261, -0.00122, 405, 100,
 19:44:26.458,e8:da:bf:c6:3e:4f, 2015-01-01 01:02:25.885, 0.512, -0.376, -1.198, -1.892, -2.197, 180.603, , , , , , , 179.835, -0.84, -136.335, -78.300, 13.100, -69.807, 20.44, 0.00598, 0.50571, -0.86261, -0.00122, 405, 100,
 19:44:26.458,e8:da:bf:c6:3e:4f, 2015-01-01 01:02:25.885, 0.35, -0.341, -1.149, -4.15, -2.075, 169.617, , , , , , , 179.819, -0.829, -138.065, -78.300, 13.100, -69.807, 20.44, 0.00598, 0.50571, -0.86261, -0.00122, 405, 100,
 19:44:26.458,e8:da:bf:c6:3e:4f, 2015-01-01 01:02:25.885, 0.265, -0.366, -0.846, -0.793, -1.709, 169.434, , , , , , , 179.813, -0.818, -139.768, -78.300, 13.100, -69.807, 20.44, 0.00598, 0.50571, -0.86261, -0.00122, 405, 100,
 19:44:26.683,e8:da:bf:c6:3e:4f, 2015-01-01 01:02:25.885, 0.137, -0.372, -0.738, 2.38, -2.258, 163.33, , , , , , , 179.841, -0.807, -141.432, -78.300, 13.100, -69.807, 20.44, 0.00598, 0.50571, -0.86261, -0.00122, 405, 100,
 19:44:26.683,e8:da:bf:c6:3e:4f, 2015-01-01 01:02:25.885, 0.026, -0.342, -0.99, 1.16, -1.404, 161.194, , , , , , , 179.879, -0.797, -143.047, -78.300, 13.100, -69.807, 20.44, 0.00598, 0.50571, -0.86261, -0.00122, 405, 100,
 19:44:26.683,e8:da:bf:c6:3e:4f, 2015-01-01 01:02:25.885, 0.018, -0.316, -1.236, -2.686, -1.282, 163.94, , , , , , , 179.89, -0.786, -144.679, -78.300, 13.100, -69.807, 20.44, 0.00598, 0.50571, -0.86261, -0.00122, 405, 100,
 19:44:26.684,e8:da:bf:c6:3e:4f, 2015-01-01 01:02:25.885, 0.006, -0.322, -1.124, -3.784, -1.404, 163.208, , , , , , , 179.868, -0.786, -146.316, -78.300, 13.100, -69.807, 20.44, 0.00598, 0.50571, -0.86261, -0.00122, 405, 100,
 19:44:26.700,e8:da:bf:c6:3e:4f, 2015-01-01 01:02:25.885, -0.06, -0.349, -0.779, 0.183, -3.601, 159.851, , , , , , , 179.868, -0.758, -147.936, -78.300, 13.100, -69.807, 20.44, 0.00354, 0.17209, -0.98502, -0.0018, 405, 100,
 19:44:26.700,e8:da:bf:c6:3e:4f, 2015-01-01 01:02:25.885, -0.362, -0.347, -0.748, 2.93, -2.075, 156.372, , , , , , , 179.901, -0.742, -149.513, -78.300, 13.100, -69.807, 20.44, 0.00354, 0.17209, -0.98502, -0.0018, 405, 100,
 19:44:26.700,e8:da:bf:c6:3e:4f, 2015-01-01 01:02:25.885, -0.426, -0.35, -1.059, 0.61, -1.648, 169.434, , , , , , , 179.94, -0.725, -151.139, -78.300, 13.100, -69.807, 20.44, 0.00354, 0.17209, -0.98502, -0.0018, 405, 100,
 19:44:26.700,e8:da:bf:c6:3e:4f, 2015-01-01 01:02:25.885, -0.405, -0.372, -1.235, -3.174, -1.099, 177.979, , , , , , , 179.94, -0.72, -152.897, -78.300, 13.100, -69.807, 20.44, 0.00354, 0.17209, -0.98502, -0.0018, 405, 100,
 19:44:26.700,e8:da:bf:c6:3e:4f, 2015-01-01 01:02:25.885, -0.272, -0.431, -1.023, -2.441, 1.709, 184.204, , , , , , , 179.923, -0.725, -154.704, -78.300, 13.100, -69.807, 20.44, 0.00354, 0.17209, -0.98502, -0.0018, 405, 100,
 19:44:26.700,e8:da:bf:c6:3e:4f, 2015-01-01 01:02:25.885, -0.03, -0.472, -0.787, 1.16, 2.014, 192.261, , , , , , , 179.94, -0.764, -156.599, -78.300, 13.100, -69.807, 20.44, 0.00354, 0.17209, -0.98502, -0.0018, 405, 100,
 19:44:26.700,e8:da:bf:c6:3e:4f, 2015-01-01 01:02:25.885, 0.146, -0.447, -0.886, 1.526, 0.977, 193.359, , , , , , , 179.978, -0.769, -158.533, -78.300, 13.100, -69.807, 20.44, 0.00354, 0.17209, -0.98502, -0.0018, 405, 100,
 19:44:26.701,e8:da:bf:c6:3e:4f, 2015-01-01 01:02:25.885, 1.781, -0.403, -1.078, -0.366, 3.479, 207.581, , , , , , , -180, -0.824, -160.532, -78.300, 13.100, -69.807, 20.44, 0.00354, 0.17209, -0.98502, -0.0018, 405, 100,
 19:44:26.701,e8:da:bf:c6:3e:4f, 2015-01-01 01:02:25.885, 3.209, -0.301, -1.111, 1.892, -0.977, 171.204, , , , , , , -179.962, -0.797, -162.515, -78.300, 13.100, -69.807, 20.44, 0.00354, 0.17209, -0.98502, -0.0018, 405, 100,
 19:44:26.701,e8:da:bf:c6:3e:4f, 2015-01-01 01:02:25.885, 4.348, -0.193, -0.982, -1.404, 7.08, 115.662, , , , , , , -179.951, -0.851, -163.883, -78.300, 13.100, -69.807, 20.44, 0.00354, 0.17209, -0.98502, -0.0018, 405, 100,
 19:44:26.701,e8:da:bf:c6:3e:4f, 2015-01-01 01:02:25.885, 4.634, -0.075, -0.877, 2.319, -3.967, 53.589, , , , , , , -179.934, -0.862, -164.756, -78.300, 13.100, -69.807, 20.44, 0.00354, 0.17209, -0.98502, -0.0018, 405, 100,
 19:44:26.701,e8:da:bf:c6:3e:4f, 2015-01-01 01:02:25.885, 3.775, 0.007, -0.921, 1.099, -6.653, -24.841, , , , , , , -179.912, -0.802, -164.817, -78.300, 13.100, -69.807, 20.44, 0.00354, 0.17209, -0.98502, -0.0018, 405, 100,
 19:44:26.701,e8:da:bf:c6:3e:4f, 2015-01-01 01:02:25.885, 2.246, 0.012, -1.008, 0.122, -13.123, -73.486, , , , , , , -179.912, -0.698, -164.317, -78.300, 13.100, -69.807, 20.44, 0.00354, 0.17209, -0.98502, -0.0018, 405, 100,
 19:44:26.701,e8:da:bf:c6:3e:4f, 2015-01-01 01:02:25.885, 0.481, -0.026, -0.974, -2.075, 0, -111.45, , , , , , , -179.929, -0.632, -163.334, -78.300, 13.100, -69.807, 20.44, 0.00354, 0.17209, -0.98502, -0.0018, 405, 100,
 19:44:26.701,e8:da:bf:c6:3e:4f, 2015-01-01 01:02:25.885, -0.681, -0.058, -1.004, -2.075, -1.404, -108.948, , , , , , , -179.962, -0.637, -162.219, -78.300, 13.100, -69.807, 20.44, 0.00354, 0.17209, -0.98502, -0.0018, 405, 100,
 19:44:26.701,e8:da:bf:c6:3e:4f, 2015-01-01 01:02:25.885, -1.9, -0.09, -1.069, -2.563, -8.911, -96.252, , , , , , , -179.989, -0.56, -161.191, -78.300, 13.100, -69.807, 20.44, 0.00354, 0.17209, -0.98502, -0.0018, 405, 100,
 19:44:26.701,e8:da:bf:c6:3e:4f, 2015-01-01 01:02:25.885, -2.849, -0.107, -1.149, -4.272, -2.197, -63.965, , , , , , , 179.967, -0.505, -160.373, -78.300, 13.100, -69.807, 20.44, 0.00354, 0.17209, -0.98502, -0.0018, 405, 100,
 19:44:26.702,e8:da:bf:c6:3e:4f, 2015-01-01 01:02:25.885, -2.788, -0.131, -0.929, -2.441, 2.014, -8.911, , , , , , , 179.929, -0.505, -160.038, -78.300, 13.100, -69.807, 20.44, 0.00354, 0.17209, -0.98502, -0.0018, 405, 100,
 19:44:26.702,e8:da:bf:c6:3e:4f, 2015-01-01 01:02:25.885, -2.07, -0.118, -0.642, 2.441, 7.141, 30.029, , , , , , , 179.934, -0.555, -160.175, -78.300, 13.100, -69.807, 20.44, 0.00354, 0.17209, -0.98502, -0.0018, 405, 100,
 19:44:26.702,e8:da:bf:c6:3e:4f, 2015-01-01 01:02:25.885, -0.881, -0.081, -0.677, 3.906, 9.338, 62.439, , , , , , , 179.973, -0.648, -160.664, -78.300, 13.100, -69.807, 20.44, 0.00354, 0.17209, -0.98502, -0.0018, 405, 100,
 19:44:26.772,e8:da:bf:c6:3e:4f, 2015-01-01 01:02:26.240, -0.052, -0.019, -1.001, 2.93, 7.935, 69.519, , , , , , , -179.984, -0.747, -161.351, -78.300, 13.100, -69.807, 20.44, 0.00354, 0.17209, -0.98502, -0.0018, 405, 100,
 19:44:26.772,e8:da:bf:c6:3e:4f, 2015-01-01 01:02:26.240, 0.275, 0.003, -1.307, -1.404, 1.892, 67.566, , , , , , , -179.967, -0.769, -162.032, -78.300, 13.100, -69.807, 20.44, 0.00354, 0.17209, -0.98502, -0.0018, 405, 100,
 19:44:26.772,e8:da:bf:c6:3e:4f, 2015-01-01 01:02:26.240, 1.553, -0.035, -1.173, -2.563, 1.831, 78.674, , , , , , , -179.989, -0.818, -162.762, -78.300, 13.100, -69.807, 20.44, 0.00354, 0.17209, -0.98502, -0.0018, 405, 100,
 19:44:26.772,e8:da:bf:c6:3e:4f, 2015-01-01 01:02:26.240, 2.395, -0.036, -0.896, 3.662, -4.883, 44.25, , , , , , , -179.967, -0.775, -163.438, -78.300, 13.100, -69.807, 20.44, 0.00354, 0.17209, -0.98502, -0.0018, 405, 100,
 19:44:26.788,e8:da:bf:c6:3e:4f, 2015-01-01 01:02:26.240, 2.415, -0.001, -0.868, 0.427, 1.892, -7.812, , , , , , , -179.951, -0.78, -163.526, -78.300, 13.100, -69.807, 20.44, 0.00354, 0.17209, -0.98502, -0.0018, 405, 100,
 19:44:26.788,e8:da:bf:c6:3e:4f, 2015-01-01 01:02:26.240, 1.825, 0.041, -1.058, 0.183, -7.385, -39.978, , , , , , , -179.94, -0.742, -163.306, -78.300, 13.100, -69.807, 20.44, 0.00354, 0.17209, -0.98502, -0.0018, 405, 100,
 19:44:26.788,e8:da:bf:c6:3e:4f, 2015-01-01 01:02:26.240, 0.773, 0.021, -1.059, -3.662, 0.916, -71.716, , , , , , , -179.973, -0.703, -162.697, -78.300, 13.100, -69.807, 20.44, 0.00354, 0.17209, -0.98502, -0.0018, 405, 100,
 19:44:26.788,e8:da:bf:c6:3e:4f, 2015-01-01 01:02:26.240, 0.141, -0.02, -0.873, 0.549, -2.808, -72.51, , , , , , , -179.995, -0.692, -161.977, -78.300, 13.100, -69.807, 20.44, 0.00354, 0.17209, -0.98502, -0.0018, 405, 100,
 19:44:26.833,e8:da:bf:c6:3e:4f, 2015-01-01 01:02:26.240, -0.204, -0.042, -0.873, 0.916, 0.793, -77.271, , , , , , , -179.989, -0.692, -161.224, -78.300, 13.100, -69.807, 20.44, 0.00354, 0.17209, -0.98502, -0.0018, 405, 100,
 19:44:26.834,e8:da:bf:c6:3e:4f, 2015-01-01 01:02:26.240, -1.043, -0.054, -1.055, 0, -7.996, -81.543, , , , , , , -179.989, -0.643, -160.433, -78.300, 13.100, -69.807, 20.44, 0.00354, 0.17209, -0.98502, -0.0018, 405, 100,
 19:44:26.834,e8:da:bf:c6:3e:4f, 2015-01-01 01:02:26.240, -2.118, -0.077, -1.279, -3.235, -4.639, -63.782, , , , , , , 179.989, -0.588, -159.67, -78.300, 13.100, -69.807, 20.44, 0.00354, 0.17209, -0.98502, -0.0018, 405, 100,
 19:44:26.834,e8:da:bf:c6:3e:4f, 2015-01-01 01:02:26.240, -2.701, -0.095, -1.159, -5.554, -3.723, -19.836, , , , , , , 179.934, -0.538, -159.291, -78.300, 13.100, -69.807, 20.44, 0.00354, 0.17209, -0.98502, -0.0018, 405, 100,
 19:44:26.941,e8:da:bf:c6:3e:4f, 2015-01-01 01:02:26.240, -2.328, -0.104, -0.672, 0.793, 5.371, 26.001, , , , , , , 179.912, -0.549, -159.329, -78.300, 13.100, -69.807, 20.44, 0.00354, 0.17209, -0.98502, -0.0018, 405, 100,
 19:44:26.941,e8:da:bf:c6:3e:4f, 2015-01-01 01:02:26.240, -1.17, -0.099, -0.457, 4.089, 8.301, 66.284, , , , , , , 179.945, -0.632, -159.846, -78.300, 13.100, -69.807, 20.44, 0.00354, 0.17209, -0.98502, -0.0018, 405, 100,
 19:44:26.941,e8:da:bf:c6:3e:4f, 2015-01-01 01:02:26.240, -0.302, -0.046, -0.798, 5.737, 9.827, 73.364, , , , , , , -179.989, -0.725, -160.56, -78.300, 13.100, -69.807, 20.44, 0.00354, 0.17209, -0.98502, -0.0018, 405, 100,
 19:44:26.942,e8:da:bf:c6:3e:4f, 2015-01-01 01:02:26.240, 0.14, -0.025, -1.354, 0, -0.183, 77.271, , , , , , , -179.956, -0.769, -161.323, -78.300, 13.100, -69.807, 20.44, 0.00354, 0.17209, -0.98502, -0.0018, 405, 100,
 19:44:27.003,e8:da:bf:c6:3e:4f, 2015-01-01 01:02:26.240, 0.856, -0.04, -1.404, -5.188, 6.165, 82.947, , , , , , , -179.978, -0.802, -162.114, -78.300, 13.100, -69.807, 20.44, 0.00354, 0.17209, -0.98502, -0.0018, 405, 100,
 19:44:27.003,e8:da:bf:c6:3e:4f, 2015-01-01 01:02:26.240, 2.146, -0.063, -0.944, 2.197, -6.653, 76.721, , , , , , , -179.995, -0.797, -162.966, -78.300, 13.100, -69.807, 20.44, 0.00354, 0.17209, -0.98502, -0.0018, 405, 100,
 19:44:27.003,e8:da:bf:c6:3e:4f, 2015-01-01 01:02:26.240, 2.26, 0.002, -0.718, 2.197, 2.563, 15.503, , , , , , , -179.956, -0.769, -163.389, -78.300, 13.100, -69.807, 20.44, 0.00354, 0.17209, -0.98502, -0.0018, 405, 100,
 19:44:27.003,e8:da:bf:c6:3e:4f, 2015-01-01 01:02:26.240, 2.243, 0.032, -0.945, 2.197, -3.174, -4.028, , , , , , , -179.94, -0.786, -163.433, -78.300, 13.100, -69.807, 20.44, 0.00354, 0.17209, -0.98502, -0.0018, 405, 100,
 19:44:27.004,e8:da:bf:c6:3e:4f, 2015-01-01 01:02:26.240, 1.445, 0.045, -1.17, -3.662, -3.113, -50.598, , , , , , , -179.945, -0.736, -163.125, -78.300, 13.100, -69.807, 20.44, 0.00354, 0.17209, -0.98502, -0.0018, 405, 100,
 19:44:27.004,e8:da:bf:c6:3e:4f, 2015-01-01 01:02:26.240, 0.879, -0.025, -0.991, -2.625, -1.404, -59.021, , , , , , , -179.995, -0.72, -162.554, -78.300, 13.100, -69.807, 20.44, 0.00354, 0.17209, -0.98502, -0.0018, 405, 100,
 19:44:27.004,e8:da:bf:c6:3e:4f, 2015-01-01 01:02:26.240, 0.432, -0.058, -0.683, 3.845, -0.549, -72.266, , , , , , , -179.989, -0.714, -161.906, -78.300, 13.100, -69.807, 20.44, 0.00354, 0.17209, -0.98502, -0.0018, 405, 100,
 19:44:27.005,e8:da:bf:c6:3e:4f, 2015-01-01 01:02:26.240, 0.036, -0.036, -0.899, 3.052, 0, -83.557, , , , , , , -179.951, -0.709, -161.109, -78.300, 13.100, -69.807, 20.44, 0.00354, 0.17209, -0.98502, -0.0018, 405, 100,
 19:44:27.043,e8:da:bf:c6:3e:4f, 2015-01-01 01:02:26.240, -0.138, -0.02, -1.297, -2.319, 1.465, -80.566, , , , , , , -179.956, -0.72, -160.285, -78.300, 13.100, -69.807, 20.44, 0.00354, 0.17209, -0.98502, -0.0018, 405, 100,
 19:44:27.043,e8:da:bf:c6:3e:4f, 2015-01-01 01:02:26.240, -0.058, -0.051, -1.237, -4.517, 2.869, -70.312, , , , , , , 179.995, -0.742, -159.532, -78.300, 13.100, -69.807, 20.44, 0.00354, 0.17209, -0.98502, -0.0018, 405, 100,
 19:44:27.044,e8:da:bf:c6:3e:4f, 2015-01-01 01:02:26.240, 0.491, -0.1, -0.8, -0.061, 1.465, -58.594, , , , , , , 179.962, -0.764, -158.901, -78.300, 13.100, -69.807, 20.44, 0.00354, 0.17209, -0.98502, -0.0018, 405, 100,
 19:44:27.044,e8:da:bf:c6:3e:4f, 2015-01-01 01:02:26.240, 0.675, -0.081, -0.609, 5.127, -1.099, -75.317, , , , , , , 179.989, -0.758, -158.258, -78.300, 13.100, -69.807, 20.44, 0.00354, 0.17209, -0.98502, -0.0018, 405, 100,
 19:44:27.044,e8:da:bf:c6:3e:4f, 2015-01-01 01:02:26.240, 0.603, -0.048, -0.984, 2.625, 2.808, -93.445, , , , , , , -179.978, -0.775, -157.363, -78.300, 13.100, -69.807, 20.44, 0.00354, 0.17209, -0.98502, -0.0018, 405, 100,
 19:44:27.044,e8:da:bf:c6:3e:4f, 2015-01-01 01:02:26.240, 0.864, -0.058, -1.309, -2.075, -0.671, -91.187, , , , , , , -179.989, -0.786, -156.462, -78.300, 13.100, -69.807, 20.44, 0.00354, 0.17209, -0.98502, -0.0018, 405, 100,
 19:44:27.045,e8:da:bf:c6:3e:4f, 2015-01-01 01:02:26.240, 0.974, -0.11, -1.161, -3.235, -0.061, -110.168, , , , , , , 179.967, -0.775, -155.451, -78.300, 13.100, -69.807, 20.44, 0.00354, 0.17209, -0.98502, -0.0018, 405, 100,
 19:44:27.045,e8:da:bf:c6:3e:4f, 2015-01-01 01:02:26.240, 0.96, -0.192, -0.844, 0.305, 0.549, -122.437, , , , , , , 179.945, -0.775, -154.281, -78.300, 13.100, -69.807, 20.44, 0.00354, 0.17209, -0.98502, -0.0018, 405, 100,
 19:44:27.061,e8:da:bf:c6:3e:4f, 2015-01-01 01:02:26.240, 0.692, -0.217, -0.778, 2.747, 0.854, -139.282, , , , , , , 179.951, -0.786, -152.963, -78.300, 13.100, -69.807, 20.44, 0.00552, 0.25861, -0.96591, -0.00092, 405, 100,
 19:44:27.061,e8:da:bf:c6:3e:4f, 2015-01-01 01:02:26.240, 0.387, -0.208, -0.993, 1.343, -0.854, -147.522, , , , , , , 179.956, -0.78, -151.518, -78.300, 13.100, -69.807, 20.44, 0.00552, 0.25861, -0.96591, -0.00092, 405, 100,
 19:44:27.061,e8:da:bf:c6:3e:4f, 2015-01-01 01:02:26.240, 0.196, -0.211, -1.142, -1.77, 0.305, -152.649, , , , , , , 179.94, -0.775, -150.018, -78.300, 13.100, -69.807, 20.44, 0.00552, 0.25861, -0.96591, -0.00092, 405, 100,
 19:44:27.061,e8:da:bf:c6:3e:4f, 2015-01-01 01:02:26.240, 0.056, -0.252, -1.019, -1.465, -0.305, -154.175, , , , , , , 179.901, -0.769, -148.486, -78.300, 13.100, -69.807, 20.44, 0.00552, 0.25861, -0.96591, -0.00092, 405, 100,
 19:44:27.157,e8:da:bf:c6:3e:4f, 2015-01-01 01:02:26.240, -0.054, -0.309, -0.81, 1.709, 1.099, -156.128, , , , , , , 179.89, -0.769, -146.931, -78.300, 13.100, -69.807, 20.44, 0.00552, 0.25861, -0.96591, -0.00092, 405, 100,
 19:44:27.175,e8:da:bf:c6:3e:4f, 2015-01-01 01:02:26.600, -0.084, -0.322, -0.888, 2.869, 1.404, -153.32, , , , , , , 179.901, -0.775, -145.382, -78.300, 13.100, -69.807, 20.44, 0.00552, 0.25861, -0.96591, -0.00092, 405, 100,
 19:44:27.175,e8:da:bf:c6:3e:4f, 2015-01-01 01:02:26.600, -0.001, -0.294, -1.136, 0.061, 1.892, -148.315, , , , , , , 179.901, -0.791, -143.877, -78.300, 13.100, -69.807, 20.44, 0.00552, 0.25861, -0.96591, -0.00092, 405, 100,
 19:44:27.175,e8:da:bf:c6:3e:4f, 2015-01-01 01:02:26.600, 0.213, -0.267, -1.191, -2.441, 2.075, -144.287, , , , , , , 179.868, -0.807, -142.421, -78.300, 13.100, -69.807, 20.44, 0.00552, 0.25861, -0.96591, -0.00092, 405, 100,
 19:44:27.199,e8:da:bf:c6:3e:4f, 2015-01-01 01:02:26.600, 0.457, -0.263, -0.969, -1.343, 0.549, -147.461, , , , , , , 179.835, -0.813, -140.971, -78.300, 13.100, -69.807, 20.44, 0.00552, 0.25861, -0.96591, -0.00092, 405, 100,
 19:44:27.199,e8:da:bf:c6:3e:4f, 2015-01-01 01:02:26.600, 0.488, -0.284, -0.752, 1.77, 1.465, -159.058, , , , , , , 179.819, -0.813, -139.433, -78.300, 13.100, -69.807, 20.44, 0.00552, 0.25861, -0.96591, -0.00092, 405, 100,
 19:44:27.200,e8:da:bf:c6:3e:4f, 2015-01-01 01:02:26.600, 0.495, -0.317, -0.792, 3.845, 2.563, -165.283, , , , , , , 179.835, -0.835, -137.807, -78.300, 13.100, -69.807, 20.44, 0.00552, 0.25861, -0.96591, -0.00092, 405, 100,
 19:44:27.200,e8:da:bf:c6:3e:4f, 2015-01-01 01:02:26.600, 0.433, -0.341, -1.092, 1.587, 0.122, -173.523, , , , , , , 179.846, -0.835, -136.115, -78.300, 13.100, -69.807, 20.44, 0.00552, 0.25861, -0.96591, -0.00092, 405, 100,
 19:44:27.216,e8:da:bf:c6:3e:4f, 2015-01-01 01:02:26.600, 0.332, -0.372, -1.24, -1.892, -0.366, -179.81, , , , , , , 179.824, -0.829, -134.341, -78.300, 13.100, -69.807, 20.44, 0.00552, 0.25861, -0.96591, -0.00092, 405, 100,
 19:44:27.216,e8:da:bf:c6:3e:4f, 2015-01-01 01:02:26.600, 0.245, -0.408, -1.066, -1.648, 0.488, -182.678, , , , , , , 179.78, -0.818, -132.534, -78.300, 13.100, -69.807, 20.44, 0.00552, 0.25861, -0.96591, -0.00092, 405, 100,
 19:44:27.216,e8:da:bf:c6:3e:4f, 2015-01-01 01:02:26.600, 0.14, -0.425, -0.839, 0.732, 0.671, -186.829, , , , , , , 179.758, -0.818, -130.682, -78.300, 13.100, -69.807, 20.44, 0.00552, 0.25861, -0.96591, -0.00092, 405, 100,
 19:44:27.216,e8:da:bf:c6:3e:4f, 2015-01-01 01:02:26.600, 0.017, -0.42, -0.814, 2.38, 0, -190.308, , , , , , , 179.753, -0.807, -128.798, -78.300, 13.100, -69.807, 20.44, 0.00552, 0.25861, -0.96591, -0.00092, 405, 100,
 19:44:27.240,e8:da:bf:c6:3e:4f, 2015-01-01 01:02:26.600, -0.083, -0.408, -0.979, 1.343, 0.488, -190.43, , , , , , , 179.753, -0.802, -126.892, -78.300, 13.100, -69.807, 20.44, 0.00552, 0.25861, -0.96591, -0.00092, 405, 100,
 19:44:27.240,e8:da:bf:c6:3e:4f, 2015-01-01 01:02:26.600, -0.117, -0.415, -1.087, -0.244, 0.916, -187.256, , , , , , , 179.736, -0.797, -125.002, -78.300, 13.100, -69.807, 20.44, 0.00552, 0.25861, -0.96591, -0.00092, 405, 100,
 19:44:27.240,e8:da:bf:c6:3e:4f, 2015-01-01 01:02:26.600, -0.073, -0.435, -1.023, 0, 1.282, -183.105, , , , , , , 179.714, -0.802, -123.157, -78.300, 13.100, -69.807, 20.44, 0.00552, 0.25861, -0.96591, -0.00092, 405, 100,
 19:44:27.240,e8:da:bf:c6:3e:4f, 2015-01-01 01:02:26.600, -0.039, -0.443, -0.944, 1.221, 1.099, -181.458, , , , , , , 179.703, -0.802, -121.339, -78.300, 13.100, -69.807, 20.44, 0.00552, 0.25861, -0.96591, -0.00092, 405, 100,
 19:44:27.273,e8:da:bf:c6:3e:4f, 2015-01-01 01:02:26.600, -0.039, -0.423, -0.992, 0.732, 0.854, -181.58, , , , , , , 179.692, -0.802, -119.526, -78.300, 13.100, -69.807, 20.44, 0.00552, 0.25861, -0.96591, -0.00092, 405, 100,
 19:44:27.273,e8:da:bf:c6:3e:4f, 2015-01-01 01:02:26.600, -0.052, -0.393, -1.042, -0.305, 0.732, -180.725, , , , , , , 179.676, -0.797, -117.713, -78.300, 13.100, -69.807, 20.44, 0.00552, 0.25861, -0.96591, -0.00092, 405, 100,
 19:44:27.273,e8:da:bf:c6:3e:4f, 2015-01-01 01:02:26.600, -0.046, -0.376, -0.989, -0.305, 1.099, -179.321, , , , , , , 179.654, -0.797, -115.917, -78.300, 13.100, -69.807, 20.44, 0.00552, 0.25861, -0.96591, -0.00092, 405, 100,
 19:44:27.274,e8:da:bf:c6:3e:4f, 2015-01-01 01:02:26.600, -0.016, -0.381, -0.886, 1.099, 1.587, -177.49, , , , , , , 179.637, -0.791, -114.131, -78.300, 13.100, -69.807, 20.44, 0.00552, 0.25861, -0.96591, -0.00092, 405, 100,
 19:44:27.421,e8:da:bf:c6:3e:4f, 2015-01-01 01:02:26.600, 0.01, -0.396, -0.894, 2.319, 2.075, -176.636, , , , , , , 179.637, -0.802, -112.363, -78.300, 13.100, -69.807, 20.44, 0.00552, 0.25861, -0.96591, -0.00092, 405, 100,
 19:44:27.652,e8:da:bf:c6:3e:4f, 2015-01-01 01:02:26.600, 0.127, -0.402, -1.05, 0.977, 1.526, -173.828, , , , , , , 179.637, -0.802, -110.61, -78.300, 13.100, -69.807, 20.44, 0.00598, 0.6749, -0.73779, -0.00241, 405, 100,
 19:44:27.684,e8:da:bf:c6:3e:4f, 2015-01-01 01:02:26.925, 0.205, -0.399, -1.126, -0.732, 0.305, -175.903, , , , , , , 179.615, -0.802, -108.875, -78.300, 13.100, -69.807, 20.44, 0.00598, 0.6749, -0.73779, -0.00241, 405, 100,
 19:44:27.684,e8:da:bf:c6:3e:4f, 2015-01-01 01:02:26.925, 0.08, -0.4, -0.995, -0.427, -0.183, -185.425, , , , , , , 179.588, -0.786, -107.062, -78.300, 13.100, -69.807, 20.44, 0.00598, 0.6749, -0.73779, -0.00241, 405, 100,
 19:44:27.700,e8:da:bf:c6:3e:4f, 2015-01-01 01:02:26.925, -0.052, -0.407, -0.868, 1.16, 0.61, -186.035, , , , , , , 179.577, -0.775, -105.205, -78.300, 13.100, -69.807, 20.44, 0.00598, 0.6749, -0.73779, -0.00241, 405, 100,
 19:44:27.700,e8:da:bf:c6:3e:4f, 2015-01-01 01:02:26.925, -0.107, -0.404, -0.897, 1.831, 1.038, -183.044, , , , , , , 179.572, -0.764, -103.359, -78.300, 13.100, -69.807, 20.44, 0.00598, 0.6749, -0.73779, -0.00241, 405, 100,
 19:44:27.700,e8:da:bf:c6:3e:4f, 2015-01-01 01:02:26.925, -0.095, -0.389, -1.008, 0.854, -1.587, -181.763, , , , , , , 179.572, -0.758, -101.541, -78.300, 13.100, -69.807, 20.44, 0.00598, 0.6749, -0.73779, -0.00241, 405, 100,
 19:44:27.700,e8:da:bf:c6:3e:4f, 2015-01-01 01:02:26.925, -1.258, -0.357, -1.04, -0.061, -6.531, -196.655, , , , , , , 179.555, -0.687, -99.662, -78.300, 13.100, -69.807, 20.44, 0.00598, 0.6749, -0.73779, -0.00241, 405, 100,
 19:44:27.700,e8:da:bf:c6:3e:4f, 2015-01-01 01:02:26.925, -2.716, -0.377, -1.111, 2.258, -4.822, -177.49, , , , , , , 179.555, -0.621, -97.723, -78.300, 13.100, -69.807, 20.44, 0.00598, 0.6749, -0.73779, -0.00241, 405, 100,
 19:44:27.700,e8:da:bf:c6:3e:4f, 2015-01-01 01:02:26.925, -3.625, -0.342, -1.09, -2.502, -6.653, -117.92, , , , , , , 179.539, -0.544, -96.317, -78.300, 13.100, -69.807, 20.44, 0.00598, 0.6749, -0.73779, -0.00241, 405, 100,
 19:44:27.700,e8:da:bf:c6:3e:4f, 2015-01-01 01:02:26.925, -3.978, -0.281, -0.934, 2.014, 0, -73.547, , , , , , , 179.528, -0.5, -95.339, -78.300, 13.100, -69.807, 20.44, 0.00598, 0.6749, -0.73779, -0.00241, 405, 100,
 19:44:27.700,e8:da:bf:c6:3e:4f, 2015-01-01 01:02:26.925, -3.279, -0.202, -0.772, -0.793, 5.066, 3.052, , , , , , , 179.539, -0.527, -95.048, -78.300, 13.100, -69.807, 20.44, 0.00598, 0.6749, -0.73779, -0.00241, 405, 100,
 19:44:27.701,e8:da:bf:c6:3e:4f, 2015-01-01 01:02:26.925, -2.088, -0.134, -0.84, 0.977, 10.803, 42.786, , , , , , , 179.539, -0.61, -95.279, -78.300, 13.100, -69.807, 20.44, 0.00598, 0.6749, -0.73779, -0.00241, 405, 100,
 19:44:27.701,e8:da:bf:c6:3e:4f, 2015-01-01 01:02:26.925, -0.531, -0.093, -0.965, -3.906, 6.47, 80.872, , , , , , , 179.522, -0.714, -95.96, -78.300, 13.100, -69.807, 20.44, 0.00598, 0.6749, -0.73779, -0.00241, 405, 100,
 19:44:27.701,e8:da:bf:c6:3e:4f, 2015-01-01 01:02:26.925, 0.215, -0.029, -0.926, 1.77, 3.052, 74.707, , , , , , , 179.528, -0.775, -96.751, -78.300, 13.100, -69.807, 20.44, 0.00598, 0.6749, -0.73779, -0.00241, 405, 100,
 19:44:27.701,e8:da:bf:c6:3e:4f, 2015-01-01 01:02:26.925, 0.727, -0.021, -1.069, 1.282, 4.089, 73.12, , , , , , , 179.555, -0.813, -97.476, -78.300, 13.100, -69.807, 20.44, 0.00598, 0.6749, -0.73779, -0.00241, 405, 100,
 19:44:27.701,e8:da:bf:c6:3e:4f, 2015-01-01 01:02:26.925, 1.646, 0.005, -1.336, -1.953, -4.333, 70.312, , , , , , , 179.555, -0.829, -98.223, -78.300, 13.100, -69.807, 20.44, 0.00598, 0.6749, -0.73779, -0.00241, 405, 100,
 19:44:27.701,e8:da:bf:c6:3e:4f, 2015-01-01 01:02:26.925, 1.714, 0.05, -1.199, -5.615, -2.075, 26.489, , , , , , , 179.522, -0.791, -98.696, -78.300, 13.100, -69.807, 20.44, 0.00598, 0.6749, -0.73779, -0.00241, 405, 100,
 19:44:27.701,e8:da:bf:c6:3e:4f, 2015-01-01 01:02:26.925, 1.43, 0.043, -0.731, -1.343, -2.502, 4.944, , , , , , , 179.484, -0.78, -98.828, -78.300, 13.100, -69.807, 20.44, 0.00598, 0.6749, -0.73779, -0.00241, 405, 100,
 19:44:27.701,e8:da:bf:c6:3e:4f, 2015-01-01 01:02:26.925, 0.762, 0.033, -0.517, 5.127, -2.38, -21.545, , , , , , , 179.506, -0.742, -98.745, -78.300, 13.100, -69.807, 20.44, 0.00598, 0.6749, -0.73779, -0.00241, 405, 100,
 19:44:27.701,e8:da:bf:c6:3e:4f, 2015-01-01 01:02:26.925, 0.111, 0.025, -0.8, 5.371, 0, -33.875, , , , , , , 179.561, -0.742, -98.448, -78.300, 13.100, -69.807, 20.44, 0.00598, 0.6749, -0.73779, -0.00241, 405, 100,
 19:44:27.702,e8:da:bf:c6:3e:4f, 2015-01-01 01:02:26.925, -0.205, 0.017, -1.246, 1.099, 0.061, -30.396, , , , , , , 179.594, -0.736, -98.124, -78.300, 13.100, -69.807, 20.44, 0.00598, 0.6749, -0.73779, -0.00241, 405, 100,
 19:44:27.702,e8:da:bf:c6:3e:4f, 2015-01-01 01:02:26.925, -0.681, 0.016, -1.392, -4.028, -5.371, -29.48, , , , , , , 179.566, -0.709, -97.833, -78.300, 13.100, -69.807, 20.44, 0.00598, 0.6749, -0.73779, -0.00241, 405, 100,
 19:44:27.702,e8:da:bf:c6:3e:4f, 2015-01-01 01:02:26.925, -1.387, -0.017, -1.135, -3.174, -1.709, -21.362, , , , , , , 179.522, -0.665, -97.559, -78.300, 13.100, -69.807, 20.44, 0.00598, 0.6749, -0.73779, -0.00241, 405, 100,
 19:44:27.702,e8:da:bf:c6:3e:4f, 2015-01-01 01:02:26.925, -1.523, -0.06, -0.869, -1.648, -0.61, 12.695, , , , , , , 179.5, -0.654, -97.537, -78.300, 13.100, -69.807, 20.44, 0.00598, 0.6749, -0.73779, -0.00241, 405, 100,
 19:44:27.702,e8:da:bf:c6:3e:4f, 2015-01-01 01:02:26.925, -1.31, -0.067, -0.75, 0.916, 3.235, 32.043, , , , , , , 179.5, -0.67, -97.773, -78.300, 13.100, -69.807, 20.44, 0.00598, 0.6749, -0.73779, -0.00241, 405, 100,
 19:44:27.702,e8:da:bf:c6:3e:4f, 2015-01-01 01:02:26.925, -0.446, -0.063, -0.774, 1.953, 4.089, 58.777, , , , , , , 179.522, -0.72, -98.251, -78.300, 13.100, -69.807, 20.44, 0.00598, 0.6749, -0.73779, -0.00241, 405, 100,
 19:44:27.702,e8:da:bf:c6:3e:4f, 2015-01-01 01:02:26.925, 0.052, -0.009, -0.928, 2.808, 2.38, 59.326, , , , , , , 179.555, -0.764, -98.86, -78.300, 13.100, -69.807, 20.44, 0.00598, 0.6749, -0.73779, -0.00241, 405, 100,
 19:44:27.702,e8:da:bf:c6:3e:4f, 2015-01-01 01:02:26.925, 0.185, 0.014, -1.18, -0.427, 1.77, 56.763, , , , , , , 179.572, -0.775, -99.437, -78.300, 13.100, -69.807, 20.44, 0.00598, 0.6749, -0.73779, -0.00241, 405, 100,
 19:44:27.702,e8:da:bf:c6:3e:4f, 2015-01-01 01:02:26.925, 0.667, -0.015, -1.258, -3.235, 4.211, 62.5, , , , , , , 179.555, -0.818, -100.031, -78.300, 13.100, -69.807, 20.44, 0.00598, 0.6749, -0.73779, -0.00241, 405, 100,
 19:44:27.702,e8:da:bf:c6:3e:4f, 2015-01-01 01:02:26.925, 1.716, -0.036, -1.132, -2.258, -5.005, 58.716, , , , , , , 179.533, -0.824, -100.673, -78.300, 13.100, -69.807, 20.44, 0.00598, 0.6749, -0.73779, -0.00241, 405, 100,
 19:44:27.703,e8:da:bf:c6:3e:4f, 2015-01-01 01:02:26.925, 1.996, -0.008, -0.841, -1.221, 1.099, 11.536, , , , , , , 179.517, -0.802, -101.003, -78.300, 13.100, -69.807, 20.44, 0.00598, 0.6749, -0.73779, -0.00241, 405, 100,
 19:44:27.703,e8:da:bf:c6:3e:4f, 2015-01-01 01:02:26.925, 2.264, 0.034, -0.724, 2.686, -1.282, -7.568, , , , , , , 179.522, -0.818, -101.008, -78.300, 13.100, -69.807, 20.44, 0.00598, 0.6749, -0.73779, -0.00241, 405, 100,
 19:44:27.703,e8:da:bf:c6:3e:4f, 2015-01-01 01:02:26.925, 1.527, 0.104, -0.862, 1.648, -5.249, -53.223, , , , , , , 179.555, -0.764, -100.701, -78.300, 13.100, -69.807, 20.44, 0.00598, 0.6749, -0.73779, -0.00241, 405, 100,
 19:44:27.703,e8:da:bf:c6:3e:4f, 2015-01-01 01:02:26.925, 0.501, 0.063, -0.995, 0.244, -1.709, -71.899, , , , , , , 179.55, -0.736, -100.031, -78.300, 13.100, -69.807, 20.44, 0.00598, 0.6749, -0.73779, -0.00241, 405, 100,
 19:44:27.703,e8:da:bf:c6:3e:4f, 2015-01-01 01:02:26.925, -0.075, -0.04, -0.948, 1.77, 0.793, -76.721, , , , , , , 179.55, -0.72, -99.289, -78.300, 13.100, -69.807, 20.44, 0.00598, 0.6749, -0.73779, -0.00241, 405, 100,
 19:44:27.703,e8:da:bf:c6:3e:4f, 2015-01-01 01:02:26.925, -0.537, -0.083, -0.998, 2.136, -3.723, -77.148, , , , , , , 179.566, -0.709, -98.52, -78.300, 13.100, -69.807, 20.44, 0.00598, 0.6749, -0.73779, -0.00241, 405, 100,
 19:44:27.703,e8:da:bf:c6:3e:4f, 2015-01-01 01:02:26.925, -1.396, -0.06, -1.148, -0.61, -2.808, -72.327, , , , , , , 179.566, -0.659, -97.762, -78.300, 13.100, -69.807, 20.44, 0.00598, 0.6749, -0.73779, -0.00241, 405, 100,
 19:44:27.703,e8:da:bf:c6:3e:4f, 2015-01-01 01:02:26.925, -1.827, -0.033, -1.252, -3.54, -2.747, -39.001, , , , , , , 179.544, -0.632, -97.213, -78.300, 13.100, -69.807, 20.44, 0.00598, 0.6749, -0.73779, -0.00241, 405, 100,
 19:44:27.704,e8:da:bf:c6:3e:4f, 2015-01-01 01:02:26.925, -2.061, -0.031, -1.06, -4.822, -1.038, -14.404, , , , , , , 179.495, -0.604, -96.965, -78.300, 13.100, -69.807, 20.44, 0.00598, 0.6749, -0.73779, -0.00241, 405, 100,
 19:44:27.720,e8:da:bf:c6:3e:4f, 2015-01-01 01:02:26.925, -1.678, -0.092, -0.657, 1.16, 3.967, 20.996, , , , , , , 179.478, -0.626, -97.009, -78.300, 13.100, -69.807, 20.44, 0.00598, 0.6749, -0.73779, -0.00241, 405, 100,
 19:44:27.720,e8:da:bf:c6:3e:4f, 2015-01-01 01:02:26.925, -1.081, -0.117, -0.629, 3.784, 5.127, 43.274, , , , , , , 179.511, -0.681, -97.361, -78.300, 13.100, -69.807, 20.44, 0.00598, 0.6749, -0.73779, -0.00241, 405, 100,
 19:44:27.720,e8:da:bf:c6:3e:4f, 2015-01-01 01:02:26.925, -0.412, -0.077, -0.884, 3.967, 3.784, 56.091, , , , , , , 179.555, -0.725, -97.866, -78.300, 13.100, -69.807, 20.44, 0.00598, 0.6749, -0.73779, -0.00241, 405, 100,
 19:44:27.720,e8:da:bf:c6:3e:4f, 2015-01-01 01:02:26.925, 0.032, 0.005, -1.271, -0.244, 1.526, 65.857, , , , , , , 179.583, -0.764, -98.498, -78.300, 13.100, -69.807, 20.44, 0.00598, 0.6749, -0.73779, -0.00241, 405, 100,
 19:44:27.761,e8:da:bf:c6:3e:4f, 2015-01-01 01:02:26.925, 0.206, 0.028, -1.36, -4.822, 0.305, 63.232, , , , , , , 179.561, -0.775, -99.146, -78.300, 13.100, -69.807, 20.44, 0.00775, 0.63904, -0.76907, -0.00125, 405, 100,
 19:44:27.761,e8:da:bf:c6:3e:4f, 2015-01-01 01:02:26.925, 0.153, -0.012, -1.021, -3.418, 0, 56.152, , , , , , , 179.517, -0.786, -99.745, -78.300, 13.100, -69.807, 20.44, 0.00775, 0.63904, -0.76907, -0.00125, 405, 100,
 19:44:27.761,e8:da:bf:c6:3e:4f, 2015-01-01 01:02:26.925, 0.072, -0.057, -0.699, 0.977, -0.854, 52.307, , , , , , , 179.517, -0.786, -100.283, -78.300, 13.100, -69.807, 20.44, 0.00775, 0.63904, -0.76907, -0.00125, 405, 100,
 19:44:27.762,e8:da:bf:c6:3e:4f, 2015-01-01 01:02:26.925, 0.056, -0.046, -0.719, 3.357, -1.099, 52.49, , , , , , , 179.544, -0.78, -100.811, -78.300, 13.100, -69.807, 20.44, 0.00775, 0.63904, -0.76907, -0.00125, 405, 100,
 19:44:27.940,e8:da:bf:c6:3e:4f, 2015-01-01 01:02:27.285, 0.018, -0.003, -1.012, 1.587, -0.549, 50.781, , , , , , , 179.577, -0.775, -101.327, -78.300, 13.100, -69.807, 20.44, 0.00775, 0.63904, -0.76907, -0.00125, 405, 100,
 19:44:28.154,e8:da:bf:c6:3e:4f, 2015-01-01 01:02:27.285, 0.002, 0.017, -1.221, -2.014, -4.028, 49.5, , , , , , , 179.577, -0.764, -101.832, -78.300, 13.100, -69.807, 20.44, 0.00775, 0.63904, -0.76907, -0.00125, 405, 100,
 19:44:28.168,e8:da:bf:c6:3e:4f, 2015-01-01 01:02:27.285, -1.042, -0.005, -1.094, -2.197, -4.211, 34.363, , , , , , , 179.561, -0.714, -102.261, -78.300, 13.100, -69.807, 20.44, 0.00537, 0.24155, -0.97034, -0.00122, 405, 100,
 19:44:28.168,e8:da:bf:c6:3e:4f, 2015-01-01 01:02:27.640, -1.364, -0.094, -0.981, 0.366, -1.099, 65.796, , , , , , , 179.566, -0.709, -102.706, -78.300, 13.100, -69.807, 20.44, 0.00537, 0.24155, -0.97034, -0.00122, 405, 100,
 19:44:28.185,e8:da:bf:c6:3e:4f, 2015-01-01 01:02:27.640, -1.577, -0.12, -0.98, -3.418, -4.7, 89.478, , , , , , , 179.544, -0.67, -103.563, -78.300, 13.100, -69.807, 20.44, 0.00537, 0.24155, -0.97034, -0.00122, 405, 100,
 19:44:28.185,e8:da:bf:c6:3e:4f, 2015-01-01 01:02:27.640, -1.515, -0.154, -0.896, 0.854, 2.319, 106.873, , , , , , , 179.544, -0.676, -104.496, -78.300, 13.100, -69.807, 20.44, 0.00537, 0.24155, -0.97034, -0.00122, 405, 100,
 19:44:28.185,e8:da:bf:c6:3e:4f, 2015-01-01 01:02:27.640, -0.909, -0.216, -0.809, -0.977, 0.61, 141.479, , , , , , , 179.555, -0.703, -105.804, -78.300, 13.100, -69.807, 20.44, 0.00537, 0.24155, -0.97034, -0.00122, 405, 100,
 19:44:28.185,e8:da:bf:c6:3e:4f, 2015-01-01 01:02:27.640, -0.656, -0.261, -0.804, 3.052, 1.343, 138.916, , , , , , , 179.577, -0.725, -107.194, -78.300, 13.100, -69.807, 20.44, 0.00537, 0.24155, -0.97034, -0.00122, 405, 100,
 19:44:28.186,e8:da:bf:c6:3e:4f, 2015-01-01 01:02:27.640, -0.188, -0.292, -0.942, 3.296, 1.709, 158.081, , , , , , , 179.632, -0.758, -108.699, -78.300, 13.100, -69.807, 20.44, 0.00537, 0.24155, -0.97034, -0.00122, 405, 100,
 19:44:28.186,e8:da:bf:c6:3e:4f, 2015-01-01 01:02:27.640, 0.024, -0.273, -1.255, -1.282, 0.916, 155.09, , , , , , , 179.659, -0.786, -110.275, -78.300, 13.100, -69.807, 20.44, 0.00537, 0.24155, -0.97034, -0.00122, 405, 100,
 19:44:28.186,e8:da:bf:c6:3e:4f, 2015-01-01 01:02:27.640, 0.063, -0.266, -1.302, -4.883, 0.549, 152.71, , , , , , , 179.637, -0.802, -111.808, -78.300, 13.100, -69.807, 20.44, 0.00537, 0.24155, -0.97034, -0.00122, 405, 100,
 19:44:28.186,e8:da:bf:c6:3e:4f, 2015-01-01 01:02:27.640, 0.076, -0.291, -0.956, -3.235, -0.183, 153.931, , , , , , , 179.61, -0.818, -113.346, -78.300, 13.100, -69.807, 20.44, 0.00537, 0.24155, -0.97034, -0.00122, 405, 100,
 19:44:28.186,e8:da:bf:c6:3e:4f, 2015-01-01 01:02:27.640, 0.086, -0.301, -0.681, 1.099, -1.099, 152.283, , , , , , , 179.621, -0.818, -114.884, -78.300, 13.100, -69.807, 20.44, 0.00537, 0.24155, -0.97034, -0.00122, 405, 100,
 19:44:28.187,e8:da:bf:c6:3e:4f, 2015-01-01 01:02:27.640, 0.069, -0.275, -0.758, 3.052, -1.526, 150.208, , , , , , , 179.659, -0.824, -116.395, -78.300, 13.100, -69.807, 20.44, 0.00537, 0.24155, -0.97034, -0.00122, 405, 100,
 19:44:28.187,e8:da:bf:c6:3e:4f, 2015-01-01 01:02:27.640, 0.058, -0.243, -1.083, 0.244, -0.854, 150.085, , , , , , , 179.698, -0.813, -117.894, -78.300, 13.100, -69.807, 20.44, 0.00537, 0.24155, -0.97034, -0.00122, 405, 100,
 19:44:28.187,e8:da:bf:c6:3e:4f, 2015-01-01 01:02:27.640, 0.059, -0.25, -1.22, -2.869, -0.61, 150.269, , , , , , , 179.698, -0.824, -119.405, -78.300, 13.100, -69.807, 20.44, 0.00537, 0.24155, -0.97034, -0.00122, 405, 100,
 19:44:28.187,e8:da:bf:c6:3e:4f, 2015-01-01 01:02:27.640, 0.047, -0.29, -1.045, -2.258, -1.404, 149.231, , , , , , , 179.687, -0.818, -120.905, -78.300, 13.100, -69.807, 20.44, 0.00537, 0.24155, -0.97034, -0.00122, 405, 100,
 19:44:28.187,e8:da:bf:c6:3e:4f, 2015-01-01 01:02:27.640, -0.044, -0.312, -0.831, 0.61, -3.052, 145.63, , , , , , , 179.692, -0.807, -122.382, -78.300, 13.100, -69.807, 20.44, 0.00537, 0.24155, -0.97034, -0.00122, 405, 100,
 19:44:28.188,e8:da:bf:c6:3e:4f, 2015-01-01 01:02:27.640, -0.392, -0.28, -0.896, 1.465, -3.479, 141.602, , , , , , , 179.725, -0.78, -123.816, -78.300, 13.100, -69.807, 20.44, 0.00537, 0.24155, -0.97034, -0.00122, 405, 100,
 19:44:28.188,e8:da:bf:c6:3e:4f, 2015-01-01 01:02:27.640, -0.549, -0.263, -1.108, -1.038, -2.075, 153.381, , , , , , , 179.742, -0.764, -125.283, -78.300, 13.100, -69.807, 20.44, 0.00537, 0.24155, -0.97034, -0.00122, 405, 100,
 19:44:28.188,e8:da:bf:c6:3e:4f, 2015-01-01 01:02:27.640, -0.569, -0.292, -1.106, -2.991, -0.916, 165.344, , , , , , , 179.736, -0.753, -126.898, -78.300, 13.100, -69.807, 20.44, 0.00537, 0.24155, -0.97034, -0.00122, 405, 100,
 19:44:28.188,e8:da:bf:c6:3e:4f, 2015-01-01 01:02:27.640, -0.503, -0.366, -0.869, -0.488, 0.122, 171.692, , , , , , , 179.731, -0.769, -128.578, -78.300, 13.100, -69.807, 20.44, 0.00537, 0.24155, -0.97034, -0.00122, 405, 100,
 19:44:28.188,e8:da:bf:c6:3e:4f, 2015-01-01 01:02:27.640, -0.279, -0.427, -0.788, 2.38, 0.916, 181.824, , , , , , , 179.764, -0.775, -130.364, -78.300, 13.100, -69.807, 20.44, 0.00537, 0.24155, -0.97034, -0.00122, 405, 100,
 19:44:28.188,e8:da:bf:c6:3e:4f, 2015-01-01 01:02:27.640, -0.067, -0.427, -1.02, 0.732, 1.282, 184.143, , , , , , , 179.802, -0.807, -132.198, -78.300, 13.100, -69.807, 20.44, 0.00537, 0.24155, -0.97034, -0.00122, 405, 100,
 19:44:28.188,e8:da:bf:c6:3e:4f, 2015-01-01 01:02:27.640, 0.067, -0.406, -1.238, -3.113, -0.183, 185.974, , , , , , , 179.808, -0.813, -134.055, -78.300, 13.100, -69.807, 20.44, 0.00537, 0.24155, -0.97034, -0.00122, 405, 100,
 19:44:28.188,e8:da:bf:c6:3e:4f, 2015-01-01 01:02:27.640, 0.108, -0.403, -1.115, -4.028, -0.61, 184.814, , , , , , , 179.786, -0.824, -135.912, -78.300, 13.100, -69.807, 20.44, 0.00537, 0.24155, -0.97034, -0.00122, 405, 100,
 19:44:28.189,e8:da:bf:c6:3e:4f, 2015-01-01 01:02:27.640, 0.096, -0.415, -0.782, -0.366, -0.854, 182.068, , , , , , , 179.786, -0.818, -137.747, -78.300, 13.100, -69.807, 20.44, 0.00537, 0.24155, -0.97034, -0.00122, 405, 100,
 19:44:28.189,e8:da:bf:c6:3e:4f, 2015-01-01 01:02:27.640, 0.085, -0.409, -0.725, 2.686, -1.282, 180.298, , , , , , , 179.819, -0.824, -139.559, -78.300, 13.100, -69.807, 20.44, 0.00537, 0.24155, -0.97034, -0.00122, 405, 100,
 19:44:28.189,e8:da:bf:c6:3e:4f, 2015-01-01 01:02:27.640, 0.081, -0.389, -0.995, 1.221, -1.404, 179.321, , , , , , , 179.863, -0.813, -141.361, -78.300, 13.100, -69.807, 20.44, 0.00537, 0.24155, -0.97034, -0.00122, 405, 100,
 19:44:28.189,e8:da:bf:c6:3e:4f, 2015-01-01 01:02:27.640, 0.058, -0.386, -1.221, -2.319, -0.977, 178.162, , , , , , , 179.874, -0.807, -143.146, -78.300, 13.100, -69.807, 20.44, 0.00537, 0.24155, -0.97034, -0.00122, 405, 100,
 19:44:28.189,e8:da:bf:c6:3e:4f, 2015-01-01 01:02:27.640, 0.042, -0.412, -1.121, -3.052, -0.854, 178.162, , , , , , , 179.863, -0.802, -144.932, -78.300, 13.100, -69.807, 20.44, 0.00537, 0.24155, -0.97034, -0.00122, 405, 100,
 19:44:28.189,e8:da:bf:c6:3e:4f, 2015-01-01 01:02:27.640, 0.052, -0.43, -0.884, -0.61, -1.038, 178.467, , , , , , , 179.863, -0.802, -146.717, -78.300, 13.100, -69.807, 20.44, 0.00537, 0.24155, -0.97034, -0.00122, 405, 100,
 19:44:28.189,e8:da:bf:c6:3e:4f, 2015-01-01 01:02:27.640, 0.039, -0.406, -0.837, 0.977, -1.526, 177.429, , , , , , , 179.89, -0.791, -148.497, -78.300, 13.100, -69.807, 20.44, 0.00537, 0.24155, -0.97034, -0.00122, 405, 100,
 19:44:28.189,e8:da:bf:c6:3e:4f, 2015-01-01 01:02:27.640, 0.003, -0.367, -0.993, -0.061, -2.319, 176.819, , , , , , , 179.912, -0.78, -150.271, -78.300, 13.100, -69.807, 20.44, 0.00537, 0.24155, -0.97034, -0.00122, 405, 100,
 19:44:28.190,e8:da:bf:c6:3e:4f, 2015-01-01 01:02:27.640, -0.052, -0.361, -1.077, -1.953, -2.686, 175.598, , , , , , , 179.918, -0.753, -152.04, -78.300, 13.100, -69.807, 20.44, 0.00537, 0.24155, -0.97034, -0.00122, 405, 100,
 19:44:28.190,e8:da:bf:c6:3e:4f, 2015-01-01 01:02:27.640, -0.197, -0.398, -0.945, -0.732, -1.099, 174.438, , , , , , , 179.923, -0.742, -153.787, -78.300, 13.100, -69.807, 20.44, 0.00537, 0.24155, -0.97034, -0.00122, 405, 100,
 19:44:28.190,e8:da:bf:c6:3e:4f, 2015-01-01 01:02:27.640, -0.138, -0.439, -0.876, 1.282, 0, 182.8, , , , , , , 179.945, -0.736, -155.572, -78.300, 13.100, -69.807, 20.44, 0.00537, 0.24155, -0.97034, -0.00122, 405, 100,
 19:44:28.190,e8:da:bf:c6:3e:4f, 2015-01-01 01:02:27.640, 0.021, -0.438, -1.015, 0.183, 0.488, 187.744, , , , , , , 179.973, -0.753, -157.44, -78.300, 13.100, -69.807, 20.44, 0.00537, 0.24155, -0.97034, -0.00122, 405, 100,
 19:44:28.190,e8:da:bf:c6:3e:4f, 2015-01-01 01:02:27.640, 0.112, -0.416, -1.143, -2.258, -0.793, 185.791, , , , , , , 179.978, -0.747, -159.307, -78.300, 13.100, -69.807, 20.44, 0.00537, 0.24155, -0.97034, -0.00122, 405, 100,
 19:44:28.190,e8:da:bf:c6:3e:4f, 2015-01-01 01:02:27.640, 0.117, -0.403, -1.032, -2.869, 2.563, 184.998, , , , , , , 179.967, -0.753, -161.158, -78.300, 13.100, -69.807, 20.44, 0.00537, 0.24155, -0.97034, -0.00122, 405, 100,
 19:44:28.214,e8:da:bf:c6:3e:4f, 2015-01-01 01:02:27.640, 1.745, -0.417, -0.768, 1.282, 3.54, 206.665, , , , , , , 179.978, -0.802, -163.109, -78.300, 13.100, -69.807, 20.44, 0.00537, 0.24155, -0.97034, -0.00122, 405, 100,
 19:44:28.215,e8:da:bf:c6:3e:4f, 2015-01-01 01:02:27.640, 3.887, -0.325, -0.835, 9.766, -2.808, 178.833, , , , , , , -179.929, -0.791, -165.13, -78.300, 13.100, -69.807, 20.44, 0.00537, 0.24155, -0.97034, -0.00122, 405, 100,
 19:44:28.215,e8:da:bf:c6:3e:4f, 2015-01-01 01:02:27.640, 5.253, -0.13, -1.2, -1.038, 7.385, 96.497, , , , , , , -179.874, -0.829, -166.432, -78.300, 13.100, -69.807, 20.44, 0.00537, 0.24155, -0.97034, -0.00122, 405, 100,
 19:44:28.215,e8:da:bf:c6:3e:4f, 2015-01-01 01:02:27.640, 5.462, -0.014, -1.237, -2.258, -4.089, 23.254, , , , , , , -179.89, -0.846, -167.069, -78.300, 13.100, -69.807, 20.44, 0.00537, 0.24155, -0.97034, -0.00122, 405, 100,
 19:44:28.231,e8:da:bf:c6:3e:4f, 2015-01-01 01:02:27.640, 4.16, -0.008, -0.892, -1.648, -9.827, -71.96, , , , , , , -179.912, -0.769, -166.723, -78.300, 13.100, -69.807, 20.44, 0.00537, 0.24155, -0.97034, -0.00122, 405, 100,
 19:44:28.231,e8:da:bf:c6:3e:4f, 2015-01-01 01:02:27.640, 2.235, -0.08, -0.679, 2.686, -16.357, -122.07, , , , , , , -179.918, -0.626, -165.74, -78.300, 13.100, -69.807, 20.44, 0.00537, 0.24155, -0.97034, -0.00122, 405, 100,
 19:44:28.231,e8:da:bf:c6:3e:4f, 2015-01-01 01:02:27.640, 0.053, -0.107, -0.818, 1.892, -0.061, -163.147, , , , , , , -179.896, -0.56, -164.251, -78.300, 13.100, -69.807, 20.44, 0.00537, 0.24155, -0.97034, -0.00122, 405, 100,
 19:44:28.231,e8:da:bf:c6:3e:4f, 2015-01-01 01:02:27.640, -1.71, -0.155, -1.207, -3.54, -8.423, -154.236, , , , , , , -179.912, -0.538, -162.636, -78.300, 13.100, -69.807, 20.44, 0.00537, 0.24155, -0.97034, -0.00122, 405, 100,
 19:44:28.288,e8:da:bf:c6:3e:4f, 2015-01-01 01:02:27.640, -3.421, -0.193, -1.432, -9.766, -8.728, -121.216, , , , , , , -179.989, -0.439, -161.274, -78.300, 13.100, -69.807, 20.44, 0.00537, 0.24155, -0.97034, -0.00122, 405, 100,
 19:44:28.289,e8:da:bf:c6:3e:4f, 2015-01-01 01:02:27.640, -4.451, -0.244, -1.087, -2.625, -1.587, -65.125, , , , , , , 179.94, -0.385, -160.329, -78.300, 13.100, -69.807, 20.44, 0.00537, 0.24155, -0.97034, -0.00122, 405, 100,
 19:44:28.289,e8:da:bf:c6:3e:4f, 2015-01-01 01:02:27.640, -4.04, -0.232, -0.486, 1.892, 4.822, 18.738, , , , , , , 179.934, -0.401, -160.148, -78.300, 13.100, -69.807, 20.44, 0.00537, 0.24155, -0.97034, -0.00122, 405, 100,
 19:44:28.290,e8:da:bf:c6:3e:4f, 2015-01-01 01:02:27.640, -2.629, -0.159, -0.481, 6.897, 13.733, 75.5, , , , , , , 179.989, -0.5, -160.642, -78.300, 13.100, -69.807, 20.44, 0.00537, 0.24155, -0.97034, -0.00122, 405, 100,
 19:44:28.374,e8:da:bf:c6:3e:4f, 2015-01-01 01:02:27.640, -0.822, -0.085, -0.947, -0.366, 11.597, 115.723, , , , , , , -179.978, -0.632, -161.664, -78.300, 13.100, -69.807, 20.44, 0.00537, 0.24155, -0.97034, -0.00122, 405, 100,
 19:44:28.394,e8:da:bf:c6:3e:4f, 2015-01-01 01:02:27.640, 0.149, -0.072, -1.28, -0.488, 4.211, 115.906, , , , , , , -179.973, -0.731, -162.834, -78.300, 13.100, -69.807, 20.44, 0.00537, 0.24155, -0.97034, -0.00122, 405, 100,
 19:44:28.394,e8:da:bf:c6:3e:4f, 2015-01-01 01:02:27.640, 1.862, -0.11, -1.228, -2.441, 4.089, 126.16, , , , , , , -179.978, -0.786, -164.031, -78.300, 13.100, -69.807, 20.44, 0.00537, 0.24155, -0.97034, -0.00122, 405, 100,
 19:44:28.395,e8:da:bf:c6:3e:4f, 2015-01-01 01:02:27.640, 3.524, -0.125, -0.977, 6.042, -4.089, 96.863, , , , , , , -179.94, -0.775, -165.234, -78.300, 13.100, -69.807, 20.44, 0.00537, 0.24155, -0.97034, -0.00122, 405, 100,
 19:44:28.430,e8:da:bf:c6:3e:4f, 2015-01-01 01:02:27.640, 3.886, -0.043, -0.897, 1.343, 2.38, 16.296, , , , , , , -179.901, -0.775, -165.712, -78.300, 13.100, -69.807, 20.44, 0.00537, 0.24155, -0.97034, -0.00122, 405, 100,
 19:44:28.430,e8:da:bf:c6:3e:4f, 2015-01-01 01:02:27.640, 3.279, 0.019, -1.017, 0.488, -7.385, -28.992, , , , , , , -179.89, -0.753, -165.663, -78.300, 13.100, -69.807, 20.44, 0.00537, 0.24155, -0.97034, -0.00122, 405, 100,
 19:44:28.430,e8:da:bf:c6:3e:4f, 2015-01-01 01:02:27.640, 1.748, 0.015, -1.09, -3.967, -6.47, -95.032, , , , , , , -179.918, -0.67, -164.938, -78.300, 13.100, -69.807, 20.44, 0.00537, 0.24155, -0.97034, -0.00122, 405, 100,
 19:44:28.430,e8:da:bf:c6:3e:4f, 2015-01-01 01:02:27.640, 0.626, -0.062, -0.901, -1.77, -3.479, -103.516, , , , , , , -179.962, -0.621, -163.949, -78.300, 13.100, -69.807, 20.44, 0.00537, 0.24155, -0.97034, -0.00122, 405, 100,
 19:44:28.431,e8:da:bf:c6:3e:4f, 2015-01-01 01:02:27.640, -0.372, -0.081, -0.758, 0.427, 1.465, -122.009, , , , , , , -179.967, -0.621, -162.801, -78.300, 13.100, -69.807, 20.44, 0.00537, 0.24155, -0.97034, -0.00122, 405, 100,
 19:44:28.431,e8:da:bf:c6:3e:4f, 2015-01-01 01:02:27.640, -1.611, -0.108, -0.938, 0.671, -6.775, -117.981, , , , , , , -179.962, -0.571, -161.581, -78.300, 13.100, -69.807, 20.44, 0.00537, 0.24155, -0.97034, -0.00122, 405, 100,
 19:44:28.431,e8:da:bf:c6:3e:4f, 2015-01-01 01:02:27.640, -2.606, -0.12, -1.325, -4.761, -5.127, -81.909, , , , , , , -179.995, -0.516, -160.587, -78.300, 13.100, -69.807, 20.44, 0.00537, 0.24155, -0.97034, -0.00122, 405, 100,
 19:44:28.431,e8:da:bf:c6:3e:4f, 2015-01-01 01:02:27.640, -3.342, -0.14, -1.274, -4.456, -2.502, -44.067, , , , , , , 179.951, -0.472, -159.972, -78.300, 13.100, -69.807, 20.44, 0.00537, 0.24155, -0.97034, -0.00122, 405, 100,
 19:44:28.447,e8:da:bf:c6:3e:4f, 2015-01-01 01:02:27.640, -3.064, -0.17, -0.76, -0.916, 3.418, 15.076, , , , , , , 179.923, -0.483, -159.846, -78.300, 13.100, -69.807, 20.44, 0.00537, 0.24155, -0.97034, -0.00122, 405, 100,
 19:44:28.447,e8:da:bf:c6:3e:4f, 2015-01-01 01:02:27.640, -2.11, -0.14, -0.46, 4.883, 8.789, 58.35, , , , , , , 179.951, -0.549, -160.258, -78.300, 13.100, -69.807, 20.44, 0.00537, 0.24155, -0.97034, -0.00122, 405, 100,
 19:44:28.447,e8:da:bf:c6:3e:4f, 2015-01-01 01:02:27.640, -0.853, -0.086, -0.766, 3.296, 9.155, 94.299, , , , , , , -179.995, -0.643, -161.054, -78.300, 13.100, -69.807, 20.44, 0.00537, 0.24155, -0.97034, -0.00122, 405, 100,
 19:44:28.447,e8:da:bf:c6:3e:4f, 2015-01-01 01:02:27.640, 0.048, -0.062, -1.209, 0.488, 4.395, 103.638, , , , , , , -179.967, -0.731, -162.076, -78.300, 13.100, -69.807, 20.44, 0.00537, 0.24155, -0.97034, -0.00122, 405, 100,
 19:44:28.463,e8:da:bf:c6:3e:4f, 2015-01-01 01:02:27.640, 0.575, -0.079, -1.339, -3.174, 3.967, 100.22, , , , , , , -179.973, -0.747, -163.092, -78.300, 13.100, -69.807, 20.44, 0.00497, 0.13095, -0.99133, -0.00061, 405, 100,
 19:44:28.463,e8:da:bf:c6:3e:4f, 2015-01-01 01:02:27.640, 2.014, -0.112, -1.039, -0.061, -1.343, 103.577, , , , , , , -179.984, -0.78, -164.119, -78.300, 13.100, -69.807, 20.44, 0.00497, 0.13095, -0.99133, -0.00061, 405, 100,
 19:44:28.463,e8:da:bf:c6:3e:4f, 2015-01-01 01:02:27.640, 2.695, -0.039, -0.864, 3.723, -0.916, 54.565, , , , , , , -179.94, -0.747, -164.943, -78.300, 13.100, -69.807, 20.44, 0.00497, 0.13095, -0.99133, -0.00061, 405, 100,
 19:44:28.463,e8:da:bf:c6:3e:4f, 2015-01-01 01:02:27.640, 2.94, 0.038, -0.971, 0.244, 1.221, 12.878, , , , , , , -179.923, -0.764, -165.218, -78.300, 13.100, -69.807, 20.44, 0.00497, 0.13095, -0.99133, -0.00061, 405, 100,
 19:44:28.621,e8:da:bf:c6:3e:4f, 2015-01-01 01:02:28.000, 2.38, 0.075, -1.084, -1.404, -5.798, -31.86, , , , , , , -179.929, -0.731, -165.135, -78.300, 13.100, -69.807, 20.44, 0.00497, 0.13095, -0.99133, -0.00061, 405, 100,
 19:44:28.651,e8:da:bf:c6:3e:4f, 2015-01-01 01:02:28.000, 1.6, 0.006, -0.965, -3.235, -3.113, -63.66, , , , , , , -179.962, -0.687, -164.603, -78.300, 13.100, -69.807, 20.44, 0.00497, 0.13095, -0.99133, -0.00061, 405, 100,
 19:44:28.651,e8:da:bf:c6:3e:4f, 2015-01-01 01:02:28.000, 0.898, -0.072, -0.735, 2.136, -0.916, -83.801, , , , , , , -179.973, -0.659, -163.872, -78.300, 13.100, -69.807, 20.44, 0.00497, 0.13095, -0.99133, -0.00061, 405, 100,
 19:44:28.651,e8:da:bf:c6:3e:4f, 2015-01-01 01:02:28.000, 0.223, -0.084, -0.789, 4.456, 1.709, -100.22, , , , , , , -179.94, -0.67, -162.927, -78.300, 13.100, -69.807, 20.44, 0.00497, 0.13095, -0.99133, -0.00061, 405, 100,
 19:44:28.668,e8:da:bf:c6:3e:4f, 2015-01-01 01:02:28.000, -0.084, -0.064, -1.237, -0.183, -1.221, -98.572, , , , , , , -179.923, -0.67, -161.927, -78.300, 13.100, -69.807, 20.44, 0.00497, 0.13095, -0.99133, -0.00061, 405, 100,
 19:44:28.668,e8:da:bf:c6:3e:4f, 2015-01-01 01:02:28.000, -0.146, -0.073, -1.401, -5.371, 0.671, -95.947, , , , , , , -179.967, -0.67, -160.961, -78.300, 13.100, -69.807, 20.44, 0.00497, 0.13095, -0.99133, -0.00061, 405, 100,
 19:44:28.668,e8:da:bf:c6:3e:4f, 2015-01-01 01:02:28.000, -0.118, -0.117, -1.033, -3.845, 1.221, -92.224, , , , , , , 179.978, -0.681, -160.021, -78.300, 13.100, -69.807, 20.44, 0.00497, 0.13095, -0.99133, -0.00061, 405, 100,
 19:44:28.668,e8:da:bf:c6:3e:4f, 2015-01-01 01:02:28.000, -0.027, -0.134, -0.601, 1.831, 3.54, -85.999, , , , , , , 179.962, -0.703, -159.131, -78.300, 13.100, -69.807, 20.44, 0.00497, 0.13095, -0.99133, -0.00061, 405, 100,
 19:44:28.668,e8:da:bf:c6:3e:4f, 2015-01-01 01:02:28.000, 0.388, -0.106, -0.614, 6.287, 1.16, -76.66, , , , , , , -180, -0.731, -158.324, -78.300, 13.100, -69.807, 20.44, 0.00497, 0.13095, -0.99133, -0.00061, 405, 100,
 19:44:28.668,e8:da:bf:c6:3e:4f, 2015-01-01 01:02:28.000, 0.607, -0.04, -1.097, 2.38, -0.061, -88.501, , , , , , , -179.962, -0.731, -157.522, -78.300, 13.100, -69.807, 20.44, 0.00497, 0.13095, -0.99133, -0.00061, 405, 100,
 19:44:28.669,e8:da:bf:c6:3e:4f, 2015-01-01 01:02:28.000, 0.602, -0.072, -1.334, -3.601, 1.404, -105.835, , , , , , , -179.984, -0.742, -156.511, -78.300, 13.100, -69.807, 20.44, 0.00497, 0.13095, -0.99133, -0.00061, 405, 100,
 19:44:28.669,e8:da:bf:c6:3e:4f, 2015-01-01 01:02:28.000, 0.893, -0.165, -1.045, -1.709, 0.305, -104.919, , , , , , , 179.973, -0.747, -155.473, -78.300, 13.100, -69.807, 20.44, 0.00497, 0.13095, -0.99133, -0.00061, 405, 100,
 19:44:28.669,e8:da:bf:c6:3e:4f, 2015-01-01 01:02:28.000, 0.841, -0.209, -0.795, 1.892, 0.854, -125.244, , , , , , , 179.967, -0.753, -154.325, -78.300, 13.100, -69.807, 20.44, 0.00497, 0.13095, -0.99133, -0.00061, 405, 100,
 19:44:28.669,e8:da:bf:c6:3e:4f, 2015-01-01 01:02:28.000, 0.674, -0.2, -0.899, 1.892, 0.732, -137.268, , , , , , , 179.978, -0.758, -152.99, -78.300, 13.100, -69.807, 20.44, 0.00497, 0.13095, -0.99133, -0.00061, 405, 100,
 19:44:28.669,e8:da:bf:c6:3e:4f, 2015-01-01 01:02:28.000, 0.461, -0.177, -1.103, -0.732, -1.16, -145.264, , , , , , , 179.973, -0.758, -151.584, -78.300, 13.100, -69.807, 20.44, 0.00497, 0.13095, -0.99133, -0.00061, 405, 100,
 19:44:28.669,e8:da:bf:c6:3e:4f, 2015-01-01 01:02:28.000, 0.238, -0.204, -1.061, -2.136, 0.488, -152.954, , , , , , , 179.94, -0.753, -150.079, -78.300, 13.100, -69.807, 20.44, 0.00497, 0.13095, -0.99133, -0.00061, 405, 100,
 19:44:28.670,e8:da:bf:c6:3e:4f, 2015-01-01 01:02:28.000, 0.147, -0.276, -0.828, 1.038, -0.244, -152.222, , , , , , , 179.918, -0.753, -148.557, -78.300, 13.100, -69.807, 20.44, 0.00497, 0.13095, -0.99133, -0.00061, 405, 100,
 19:44:28.670,e8:da:bf:c6:3e:4f, 2015-01-01 01:02:28.000, 0.014, -0.317, -0.806, 3.479, 0.61, -157.349, , , , , , , 179.929, -0.747, -147.008, -78.300, 13.100, -69.807, 20.44, 0.00497, 0.13095, -0.99133, -0.00061, 405, 100,
 19:44:28.670,e8:da:bf:c6:3e:4f, 2015-01-01 01:02:28.000, -0.075, -0.316, -1.105, 0.916, 1.831, -157.593, , , , , , , 179.94, -0.764, -145.426, -78.300, 13.100, -69.807, 20.44, 0.00497, 0.13095, -0.99133, -0.00061, 405, 100,
 19:44:28.670,e8:da:bf:c6:3e:4f, 2015-01-01 01:02:28.000, 0.017, -0.298, -1.259, -2.502, 2.197, -150.452, , , , , , , 179.912, -0.775, -143.893, -78.300, 13.100, -69.807, 20.44, 0.00497, 0.13095, -0.99133, -0.00061, 405, 100,
 19:44:28.744,e8:da:bf:c6:3e:4f, 2015-01-01 01:02:28.000, 0.287, -0.284, -1.076, -2.563, 1.282, -146.179, , , , , , , 179.868, -0.797, -142.421, -78.300, 13.100, -69.807, 20.44, 0.00497, 0.13095, -0.99133, -0.00061, 405, 100,
 19:44:28.744,e8:da:bf:c6:3e:4f, 2015-01-01 01:02:28.000, 0.48, -0.279, -0.782, 0.427, 0.366, -152.832, , , , , , , 179.841, -0.797, -140.933, -78.300, 13.100, -69.807, 20.44, 0.00497, 0.13095, -0.99133, -0.00061, 405, 100,
 19:44:28.744,e8:da:bf:c6:3e:4f, 2015-01-01 01:02:28.000, 0.49, -0.292, -0.708, 3.418, 2.014, -163.635, , , , , , , 179.846, -0.807, -139.34, -78.300, 13.100, -69.807, 20.44, 0.00497, 0.13095, -0.99133, -0.00061, 405, 100,
 19:44:28.744,e8:da:bf:c6:3e:4f, 2015-01-01 01:02:28.000, 0.497, -0.318, -0.917, 3.357, 2.014, -168.518, , , , , , , 179.863, -0.824, -137.681, -78.300, 13.100, -69.807, 20.44, 0.00497, 0.13095, -0.99133, -0.00061, 405, 100,
 19:44:28.769,e8:da:bf:c6:3e:4f, 2015-01-01 01:02:28.000, 0.392, -0.352, -1.175, 0.244, -0.122, -177.673, , , , , , , 179.863, -0.829, -135.945, -78.300, 13.100, -69.807, 20.44, 0.00497, 0.13095, -0.99133, -0.00061, 405, 100,
 19:44:28.770,e8:da:bf:c6:3e:4f, 2015-01-01 01:02:28.000, 0.273, -0.407, -1.181, -1.709, -0.183, -183.044, , , , , , , 179.835, -0.813, -134.138, -78.300, 13.100, -69.807, 20.44, 0.00497, 0.13095, -0.99133, -0.00061, 405, 100,
 19:44:28.770,e8:da:bf:c6:3e:4f, 2015-01-01 01:02:28.000, 0.172, -0.435, -0.981, -0.549, 0.671, -186.096, , , , , , , 179.802, -0.818, -132.292, -78.300, 13.100, -69.807, 20.44, 0.00497, 0.13095, -0.99133, -0.00061, 405, 100,
 19:44:28.770,e8:da:bf:c6:3e:4f, 2015-01-01 01:02:28.000, 0.06, -0.429, -0.854, 0.977, 0.427, -189.575, , , , , , , 179.786, -0.807, -130.413, -78.300, 13.100, -69.807, 20.44, 0.00497, 0.13095, -0.99133, -0.00061, 405, 100,
 19:44:28.827,e8:da:bf:c6:3e:4f, 2015-01-01 01:02:28.000, -0.05, -0.411, -0.893, 1.404, 0.122, -191.528, , , , , , , 179.78, -0.807, -128.507, -78.300, 13.100, -69.807, 20.44, 0.00659, 0.47083, -0.88214, -0.00101, 405, 100,
 19:44:28.871,e8:da:bf:c6:3e:4f, 2015-01-01 01:02:28.000, -0.112, -0.407, -0.993, 0.488, 0.793, -189.27, , , , , , , 179.769, -0.802, -126.601, -78.300, 13.100, -69.807, 20.44, 0.00659, 0.47083, -0.88214, -0.00101, 405, 100,
 19:44:28.871,e8:da:bf:c6:3e:4f, 2015-01-01 01:02:28.325, -0.106, -0.425, -1.006, 0.427, 0.916, -185.181, , , , , , , 179.753, -0.802, -124.733, -78.300, 13.100, -69.807, 20.44, 0.00659, 0.47083, -0.88214, -0.00101, 405, 100,
 19:44:28.871,e8:da:bf:c6:3e:4f, 2015-01-01 01:02:28.325, -0.049, -0.444, -0.982, 1.16, 1.16, -181.824, , , , , , , 179.742, -0.802, -122.904, -78.300, 13.100, -69.807, 20.44, 0.00659, 0.47083, -0.88214, -0.00101, 405, 100,
 19:44:28.887,e8:da:bf:c6:3e:4f, 2015-01-01 01:02:28.325, -0.017, -0.44, -1.022, 0.732, 1.099, -181.519, , , , , , , 179.731, -0.807, -121.091, -78.300, 13.100, -69.807, 20.44, 0.00659, 0.47083, -0.88214, -0.00101, 405, 100,
 19:44:28.887,e8:da:bf:c6:3e:4f, 2015-01-01 01:02:28.325, -0.005, -0.415, -1.069, -0.549, 0.916, -181.58, , , , , , , 179.714, -0.807, -119.273, -78.300, 13.100, -69.807, 20.44, 0.00659, 0.47083, -0.88214, -0.00101, 405, 100,
 19:44:28.887,e8:da:bf:c6:3e:4f, 2015-01-01 01:02:28.325, -0.026, -0.389, -1.001, -0.793, 0.977, -181.824, , , , , , , 179.687, -0.807, -117.46, -78.300, 13.100, -69.807, 20.44, 0.00659, 0.47083, -0.88214, -0.00101, 405, 100,
 19:44:28.887,e8:da:bf:c6:3e:4f, 2015-01-01 01:02:28.325, -0.01, -0.38, -0.875, 0.61, 1.709, -179.932, , , , , , , 179.665, -0.807, -115.648, -78.300, 13.100, -69.807, 20.44, 0.00659, 0.47083, -0.88214, -0.00101, 405, 100,
 19:44:28.887,e8:da:bf:c6:3e:4f, 2015-01-01 01:02:28.325, 0.024, -0.386, -0.84, 2.319, 1.526, -178.711, , , , , , , 179.659, -0.818, -113.862, -78.300, 13.100, -69.807, 20.44, 0.00659, 0.47083, -0.88214, -0.00101, 405, 100,
 19:44:28.887,e8:da:bf:c6:3e:4f, 2015-01-01 01:02:28.325, 0.062, -0.4, -0.97, 2.136, 2.014, -177.979, , , , , , , 179.665, -0.818, -112.077, -78.300, 13.100, -69.807, 20.44, 0.00659, 0.47083, -0.88214, -0.00101, 405, 100,
 19:44:28.888,e8:da:bf:c6:3e:4f, 2015-01-01 01:02:28.325, 0.189, -0.412, -1.137, 0, 0.977, -175.781, , , , , , , 179.659, -0.829, -110.314, -78.300, 13.100, -69.807, 20.44, 0.00659, 0.47083, -0.88214, -0.00101, 405, 100,
 19:44:28.888,e8:da:bf:c6:3e:4f, 2015-01-01 01:02:28.325, 0.168, -0.416, -1.113, -1.099, -0.122, -182.495, , , , , , , 179.632, -0.813, -108.528, -78.300, 13.100, -69.807, 20.44, 0.00659, 0.47083, -0.88214, -0.00101, 405, 100,
 19:44:28.920,e8:da:bf:c6:3e:4f, 2015-01-01 01:02:28.325, 0.005, -0.42, -0.95, -0.061, -0.183, -188.232, , , , , , , 179.604, -0.802, -106.666, -78.300, 13.100, -69.807, 20.44, 0.00659, 0.47083, -0.88214, -0.00101, 405, 100,
 19:44:28.920,e8:da:bf:c6:3e:4f, 2015-01-01 01:02:28.325, -0.078, -0.416, -0.861, 1.465, 0.732, -186.035, , , , , , , 179.594, -0.786, -104.793, -78.300, 13.100, -69.807, 20.44, 0.00659, 0.47083, -0.88214, -0.00101, 405, 100,
 19:44:28.920,e8:da:bf:c6:3e:4f, 2015-01-01 01:02:28.325, -0.085, -0.404, -0.932, 1.404, 0.916, -183.228, , , , , , , 179.588, -0.786, -102.947, -78.300, 13.100, -69.807, 20.44, 0.00659, 0.47083, -0.88214, -0.00101, 405, 100,
 19:44:28.920,e8:da:bf:c6:3e:4f, 2015-01-01 01:02:28.325, -0.073, -0.396, -1.012, 0.549, -2.136, -184.021, , , , , , , 179.577, -0.769, -101.118, -78.300, 13.100, -69.807, 20.44, 0.00659, 0.47083, -0.88214, -0.00101, 405, 100,
 19:44:29.032,e8:da:bf:c6:3e:4f, 2015-01-01 01:02:28.325, -1.378, -0.373, -1.001, 0.183, -6.226, -201.843, , , , , , , 179.566, -0.703, -99.201, -78.300, 13.100, -69.807, 20.44, 0.00659, 0.47083, -0.88214, -0.00101, 405, 100,
 19:44:29.048,e8:da:bf:c6:3e:4f, 2015-01-01 01:02:28.325, -2.776, -0.395, -1.114, 2.563, -4.517, -176.331, , , , , , , 179.572, -0.637, -97.234, -78.300, 13.100, -69.807, 20.44, 0.00659, 0.47083, -0.88214, -0.00101, 405, 100,
 19:44:29.048,e8:da:bf:c6:3e:4f, 2015-01-01 01:02:28.325, -3.686, -0.343, -1.144, -3.54, -6.287, -117.615, , , , , , , 179.55, -0.571, -95.85, -78.300, 13.100, -69.807, 20.44, 0.00659, 0.47083, -0.88214, -0.00101, 405, 100,
 19:44:29.067,e8:da:bf:c6:3e:4f, 2015-01-01 01:02:28.325, -3.975, -0.282, -0.938, 1.587, 0.671, -71.533, , , , , , , 179.533, -0.527, -94.872, -78.300, 13.100, -69.807, 20.44, 0.00659, 0.47083, -0.88214, -0.00101, 405, 100,
 19:44:29.083,e8:da:bf:c6:3e:4f, 2015-01-01 01:02:28.325, -3.02, -0.207, -0.713, -1.831, 5.676, 1.709, , , , , , , 179.533, -0.571, -94.603, -78.300, 13.100, -69.807, 20.44, 0.00659, 0.47083, -0.88214, -0.00101, 405, 100,
 19:44:29.083,e8:da:bf:c6:3e:4f, 2015-01-01 01:02:28.325, -1.837, -0.117, -0.805, 1.587, 10.681, 38.025, , , , , , , 179.533, -0.654, -94.801, -78.300, 13.100, -69.807, 20.44, 0.00659, 0.47083, -0.88214, -0.00101, 405, 100,
 19:44:29.083,e8:da:bf:c6:3e:4f, 2015-01-01 01:02:28.325, -0.403, -0.072, -0.979, -2.258, 5.127, 73.364, , , , , , , 179.533, -0.747, -95.411, -78.300, 13.100, -69.807, 20.44, 0.00659, 0.47083, -0.88214, -0.00101, 405, 100,
 19:44:29.084,e8:da:bf:c6:3e:4f, 2015-01-01 01:02:28.325, 0.276, -0.016, -0.971, 1.953, 2.197, 66.528, , , , , , , 179.539, -0.797, -96.125, -78.300, 13.100, -69.807, 20.44, 0.00659, 0.47083, -0.88214, -0.00101, 405, 100,
 19:44:29.086,e8:da:bf:c6:3e:4f, 2015-01-01 01:02:28.325, 0.602, -0.01, -1.119, 0.732, 3.479, 60.974, , , , , , , 179.566, -0.829, -96.751, -78.300, 13.100, -69.807, 20.44, 0.00659, 0.47083, -0.88214, -0.00101, 405, 100,
 19:44:29.087,e8:da:bf:c6:3e:4f, 2015-01-01 01:02:28.325, 1.381, 0.008, -1.334, -3.235, -2.38, 60.974, , , , , , , 179.561, -0.851, -97.372, -78.300, 13.100, -69.807, 20.44, 0.00659, 0.47083, -0.88214, -0.00101, 405, 100,
 19:44:29.088,e8:da:bf:c6:3e:4f, 2015-01-01 01:02:28.325, 1.518, 0.048, -1.165, -5.31, -3.113, 26.062, , , , , , , 179.517, -0.813, -97.817, -78.300, 13.100, -69.807, 20.44, 0.00659, 0.47083, -0.88214, -0.00101, 405, 100,
 19:44:29.088,e8:da:bf:c6:3e:4f, 2015-01-01 01:02:28.325, 1.308, 0.048, -0.708, -1.099, -2.136, 2.441, , , , , , , 179.484, -0.791, -97.927, -78.300, 13.100, -69.807, 20.44, 0.00659, 0.47083, -0.88214, -0.00101, 405, 100,
 19:44:29.105,e8:da:bf:c6:3e:4f, 2015-01-01 01:02:28.325, 0.745, 0.039, -0.51, 5.005, -2.258, -15.747, , , , , , , 179.511, -0.764, -97.861, -78.300, 13.100, -69.807, 20.44, 0.00659, 0.47083, -0.88214, -0.00101, 405, 100,
 19:44:29.105,e8:da:bf:c6:3e:4f, 2015-01-01 01:02:28.325, 0.153, 0.029, -0.816, 5.31, 0.671, -31.799, , , , , , , 179.566, -0.764, -97.603, -78.300, 13.100, -69.807, 20.44, 0.00659, 0.47083, -0.88214, -0.00101, 405, 100,
 19:44:29.105,e8:da:bf:c6:3e:4f, 2015-01-01 01:02:28.325, -0.133, 0.011, -1.245, 1.282, -0.671, -29.48, , , , , , , 179.594, -0.753, -97.295, -78.300, 13.100, -69.807, 20.44, 0.00659, 0.47083, -0.88214, -0.00101, 405, 100,
 19:44:29.105,e8:da:bf:c6:3e:4f, 2015-01-01 01:02:28.325, -0.291, -0.001, -1.389, -3.601, -2.625, -26.123, , , , , , , 179.577, -0.742, -97.026, -78.300, 13.100, -69.807, 20.44, 0.00659, 0.47083, -0.88214, -0.00101, 405, 100,
 19:44:29.121,e8:da:bf:c6:3e:4f, 2015-01-01 01:02:28.325, -0.88, -0.012, -1.109, -3.845, -2.014, -27.588, , , , , , , 179.533, -0.703, -96.751, -78.300, 13.100, -69.807, 20.44, 0.00659, 0.47083, -0.88214, -0.00101, 405, 100,
 19:44:29.121,e8:da:bf:c6:3e:4f, 2015-01-01 01:02:28.325, -1.071, -0.038, -0.85, -1.038, 0, -3.601, , , , , , , 179.506, -0.703, -96.586, -78.300, 13.100, -69.807, 20.44, 0.00659, 0.47083, -0.88214, -0.00101, 405, 100,
 19:44:29.121,e8:da:bf:c6:3e:4f, 2015-01-01 01:02:28.325, -1.061, -0.023, -0.805, 0.61, 0.61, 12.634, , , , , , , 179.511, -0.703, -96.663, -78.300, 13.100, -69.807, 20.44, 0.00659, 0.47083, -0.88214, -0.00101, 405, 100,
 19:44:29.121,e8:da:bf:c6:3e:4f, 2015-01-01 01:02:28.325, -0.723, -0.015, -0.868, 1.038, 2.869, 28.809, , , , , , , 179.522, -0.725, -96.866, -78.300, 13.100, -69.807, 20.44, 0.00659, 0.47083, -0.88214, -0.00101, 405, 100,
 19:44:29.153,e8:da:bf:c6:3e:4f, 2015-01-01 01:02:28.325, -0.177, -0.015, -0.878, 2.258, 3.235, 41.931, , , , , , , 179.544, -0.758, -97.245, -78.300, 13.100, -69.807, 20.44, 0.00775, 0.65414, -0.75626, -0.0007, 405, 100,
 19:44:29.153,e8:da:bf:c6:3e:4f, 2015-01-01 01:02:28.325, 0.082, 0.002, -1.044, 1.221, 0.854, 40.894, , , , , , , 179.566, -0.791, -97.663, -78.300, 13.100, -69.807, 20.44, 0.00775, 0.65414, -0.75626, -0.0007, 405, 100,
 19:44:29.153,e8:da:bf:c6:3e:4f, 2015-01-01 01:02:28.325, 0.132, -0.003, -1.189, -1.404, 1.343, 39.978, , , , , , , 179.572, -0.797, -98.069, -78.300, 13.100, -69.807, 20.44, 0.00775, 0.65414, -0.75626, -0.0007, 405, 100,
 19:44:29.153,e8:da:bf:c6:3e:4f, 2015-01-01 01:02:28.325, 0.464, -0.022, -1.169, -3.174, 2.319, 45.044, , , , , , , 179.55, -0.824, -98.492, -78.300, 13.100, -69.807, 20.44, 0.00775, 0.65414, -0.75626, -0.0007, 405, 100,
 19:44:29.341,e8:da:bf:c6:3e:4f, 2015-01-01 01:02:28.685, 1.301, -0.016, -1.009, -1.77, -3.052, 42.908, , , , , , , 179.528, -0.824, -98.959, -78.300, 13.100, -69.807, 20.44, 0.00775, 0.65414, -0.75626, -0.0007, 405, 100,
 19:44:29.375,e8:da:bf:c6:3e:4f, 2015-01-01 01:02:28.685, 1.552, 0.034, -0.836, -0.305, -0.061, 7.385, , , , , , , 179.522, -0.807, -99.207, -78.300, 13.100, -69.807, 20.44, 0.00775, 0.65414, -0.75626, -0.0007, 405, 100,
 19:44:29.376,e8:da:bf:c6:3e:4f, 2015-01-01 01:02:28.685, 1.502, 0.065, -0.784, 1.221, -1.16, -13.855, , , , , , , 179.522, -0.807, -99.152, -78.300, 13.100, -69.807, 20.44, 0.00775, 0.65414, -0.75626, -0.0007, 405, 100,
 19:44:29.376,e8:da:bf:c6:3e:4f, 2015-01-01 01:02:28.685, 0.967, 0.062, -0.847, 2.563, -3.418, -39.49, , , , , , , 179.544, -0.775, -98.882, -78.300, 13.100, -69.807, 20.44, 0.00775, 0.65414, -0.75626, -0.0007, 405, 100,
 19:44:29.392,e8:da:bf:c6:3e:4f, 2015-01-01 01:02:28.685, 0.234, 0.021, -0.983, 1.648, -0.244, -54.626, , , , , , , 179.561, -0.758, -98.388, -78.300, 13.100, -69.807, 20.44, 0.00775, 0.65414, -0.75626, -0.0007, 405, 100,
 19:44:29.392,e8:da:bf:c6:3e:4f, 2015-01-01 01:02:28.685, -0.19, -0.031, -1.051, 1.343, 0, -56.458, , , , , , , 179.572, -0.747, -97.822, -78.300, 13.100, -69.807, 20.44, 0.00775, 0.65414, -0.75626, -0.0007, 405, 100,
 19:44:29.392,e8:da:bf:c6:3e:4f, 2015-01-01 01:02:28.685, -0.475, -0.026, -1.129, -0.549, -2.625, -50.72, , , , , , , 179.566, -0.736, -97.289, -78.300, 13.100, -69.807, 20.44, 0.00775, 0.65414, -0.75626, -0.0007, 405, 100,
 19:44:29.392,e8:da:bf:c6:3e:4f, 2015-01-01 01:02:28.685, -1.016, 0.003, -1.097, -2.014, -3.357, -44.312, , , , , , , 179.55, -0.692, -96.817, -78.300, 13.100, -69.807, 20.44, 0.00775, 0.65414, -0.75626, -0.0007, 405, 100,
 19:44:29.392,e8:da:bf:c6:3e:4f, 2015-01-01 01:02:28.685, -1.491, 0.001, -1.062, -2.747, -1.526, -26.672, , , , , , , 179.522, -0.67, -96.46, -78.300, 13.100, -69.807, 20.44, 0.00775, 0.65414, -0.75626, -0.0007, 405, 100,
 19:44:29.392,e8:da:bf:c6:3e:4f, 2015-01-01 01:02:28.685, -1.647, -0.042, -0.909, -1.953, -0.549, -1.221, , , , , , , 179.495, -0.654, -96.339, -78.300, 13.100, -69.807, 20.44, 0.00775, 0.65414, -0.75626, -0.0007, 405, 100,
 19:44:29.392,e8:da:bf:c6:3e:4f, 2015-01-01 01:02:28.685, -1.499, -0.087, -0.753, 1.648, 1.709, 22.888, , , , , , , 179.5, -0.665, -96.46, -78.300, 13.100, -69.807, 20.44, 0.00775, 0.65414, -0.75626, -0.0007, 405, 100,
 19:44:29.392,e8:da:bf:c6:3e:4f, 2015-01-01 01:02:28.685, -1.18, -0.091, -0.841, 2.869, 2.869, 44.128, , , , , , , 179.528, -0.692, -96.812, -78.300, 13.100, -69.807, 20.44, 0.00775, 0.65414, -0.75626, -0.0007, 405, 100,
 19:44:29.393,e8:da:bf:c6:3e:4f, 2015-01-01 01:02:28.685, -0.865, -0.056, -1.036, 1.526, 1.099, 59.143, , , , , , , 179.555, -0.714, -97.339, -78.300, 13.100, -69.807, 20.44, 0.00775, 0.65414, -0.75626, -0.0007, 405, 100,
 19:44:29.393,e8:da:bf:c6:3e:4f, 2015-01-01 01:02:28.685, -0.655, -0.035, -1.115, -0.427, 0.488, 71.899, , , , , , , 179.566, -0.731, -98.009, -78.300, 13.100, -69.807, 20.44, 0.00775, 0.65414, -0.75626, -0.0007, 405, 100,
 19:44:29.393,e8:da:bf:c6:3e:4f, 2015-01-01 01:02:28.685, -0.533, -0.048, -1.036, -0.732, -0.854, 81.238, , , , , , , 179.566, -0.736, -98.784, -78.300, 13.100, -69.807, 20.44, 0.00775, 0.65414, -0.75626, -0.0007, 405, 100,
 19:44:29.393,e8:da:bf:c6:3e:4f, 2015-01-01 01:02:28.685, -0.545, -0.079, -0.964, -0.488, -0.671, 85.999, , , , , , , 179.566, -0.736, -99.624, -78.300, 13.100, -69.807, 20.44, 0.00775, 0.65414, -0.75626, -0.0007, 405, 100,
 19:44:29.393,e8:da:bf:c6:3e:4f, 2015-01-01 01:02:28.685, -0.532, -0.111, -0.927, 0.122, -0.488, 95.276, , , , , , , 179.577, -0.736, -100.536, -78.300, 13.100, -69.807, 20.44, 0.00775, 0.65414, -0.75626, -0.0007, 405, 100,
 19:44:29.393,e8:da:bf:c6:3e:4f, 2015-01-01 01:02:28.685, -0.519, -0.132, -0.954, 0.183, 0, 101.746, , , , , , , 179.588, -0.742, -101.53, -78.300, 13.100, -69.807, 20.44, 0.00775, 0.65414, -0.75626, -0.0007, 405, 100,
 19:44:29.393,e8:da:bf:c6:3e:4f, 2015-01-01 01:02:28.685, -0.377, -0.155, -1.011, -0.183, 1.892, 111.633, , , , , , , 179.599, -0.758, -102.601, -78.300, 13.100, -69.807, 20.44, 0.00775, 0.65414, -0.75626, -0.0007, 405, 100,
 19:44:29.393,e8:da:bf:c6:3e:4f, 2015-01-01 01:02:28.685, -0.227, -0.167, -1.07, -1.465, 0.366, 116.15, , , , , , , 179.604, -0.78, -103.749, -78.300, 13.100, -69.807, 20.44, 0.00775, 0.65414, -0.75626, -0.0007, 405, 100,
 19:44:29.393,e8:da:bf:c6:3e:4f, 2015-01-01 01:02:28.685, -0.178, -0.172, -1.016, -1.648, -0.671, 116.699, , , , , , , 179.599, -0.786, -104.919, -78.300, 13.100, -69.807, 20.44, 0.00775, 0.65414, -0.75626, -0.0007, 405, 100,
 19:44:29.393,e8:da:bf:c6:3e:4f, 2015-01-01 01:02:28.685, -0.187, -0.167, -0.903, 0, -1.282, 120.728, , , , , , , 179.604, -0.786, -106.111, -78.300, 13.100, -69.807, 20.44, 0.00775, 0.65414, -0.75626, -0.0007, 405, 100,
 19:44:29.394,e8:da:bf:c6:3e:4f, 2015-01-01 01:02:28.685, -0.327, -0.156, -0.907, 0.366, -2.502, 121.887, , , , , , , 179.621, -0.775, -107.325, -78.300, 13.100, -69.807, 20.44, 0.00775, 0.65414, -0.75626, -0.0007, 405, 100,
 19:44:29.394,e8:da:bf:c6:3e:4f, 2015-01-01 01:02:28.685, -0.495, -0.177, -0.982, 0.183, -2.258, 127.563, , , , , , , 179.632, -0.758, -108.578, -78.300, 13.100, -69.807, 20.44, 0.00775, 0.65414, -0.75626, -0.0007, 405, 100,
 19:44:29.484,e8:da:bf:c6:3e:4f, 2015-01-01 01:02:28.685, -0.631, -0.222, -1.047, -0.671, -1.892, 134.888, , , , , , , 179.643, -0.747, -109.891, -78.300, 13.100, -69.807, 20.44, 0.00775, 0.65414, -0.75626, -0.0007, 405, 100,
 19:44:29.484,e8:da:bf:c6:3e:4f, 2015-01-01 01:02:28.685, -0.568, -0.278, -1.028, -1.038, 0.732, 145.691, , , , , , , 179.648, -0.753, -111.297, -78.300, 13.100, -69.807, 20.44, 0.00775, 0.65414, -0.75626, -0.0007, 405, 100,
 19:44:29.484,e8:da:bf:c6:3e:4f, 2015-01-01 01:02:28.685, -0.34, -0.311, -0.966, -0.549, 1.038, 154.907, , , , , , , 179.654, -0.769, -112.819, -78.300, 13.100, -69.807, 20.44, 0.00775, 0.65414, -0.75626, -0.0007, 405, 100,
 19:44:29.484,e8:da:bf:c6:3e:4f, 2015-01-01 01:02:28.685, -0.095, -0.309, -0.945, 0, 2.319, 159.912, , , , , , , 179.67, -0.802, -114.395, -78.300, 13.100, -69.807, 20.44, 0.00775, 0.65414, -0.75626, -0.0007, 405, 100,
 19:44:29.575,e8:da:bf:c6:3e:4f, 2015-01-01 01:02:28.685, 0.091, -0.29, -1.021, -1.282, -0.122, 162.72, , , , , , , 179.681, -0.818, -116.016, -78.300, 13.100, -69.807, 20.44, 0.00775, 0.65414, -0.75626, -0.0007, 405, 100,
 19:44:29.635,e8:da:bf:c6:3e:4f, 2015-01-01 01:02:29.040, 0.148, -0.285, -1.003, -1.648, -0.549, 160.156, , , , , , , 179.681, -0.829, -117.631, -78.300, 13.100, -69.807, 20.44, 0.00641, 0.45914, -0.88828, -0.00119, 405, 100,
 19:44:29.635,e8:da:bf:c6:3e:4f, 2015-01-01 01:02:29.040, 0.104, -0.296, -0.915, -0.305, -1.526, 155.518, , , , , , , 179.692, -0.824, -119.213, -78.300, 13.100, -69.807, 20.44, 0.00641, 0.45914, -0.88828, -0.00119, 405, 100,
 19:44:29.635,e8:da:bf:c6:3e:4f, 2015-01-01 01:02:29.040, 0.007, -0.303, -0.896, 0.793, -2.258, 151.917, , , , , , , 179.714, -0.818, -120.751, -78.300, 13.100, -69.807, 20.44, 0.00641, 0.45914, -0.88828, -0.00119, 405, 100,
 19:44:29.651,e8:da:bf:c6:3e:4f, 2015-01-01 01:02:29.040, -0.075, -0.3, -0.997, 0.488, -1.709, 151.367, , , , , , , 179.736, -0.802, -122.267, -78.300, 13.100, -69.807, 20.44, 0.00641, 0.45914, -0.88828, -0.00119, 405, 100,
 19:44:29.651,e8:da:bf:c6:3e:4f, 2015-01-01 01:02:29.040, -0.184, -0.293, -1.111, -1.526, -1.831, 152.405, , , , , , , 179.747, -0.797, -123.788, -78.300, 13.100, -69.807, 20.44, 0.00641, 0.45914, -0.88828, -0.00119, 405, 100,
 19:44:29.651,e8:da:bf:c6:3e:4f, 2015-01-01 01:02:29.040, -0.295, -0.307, -1.037, -1.953, -2.319, 156.067, , , , , , , 179.747, -0.78, -125.327, -78.300, 13.100, -69.807, 20.44, 0.00641, 0.45914, -0.88828, -0.00119, 405, 100,
 19:44:29.651,e8:da:bf:c6:3e:4f, 2015-01-01 01:02:29.040, -0.33, -0.329, -0.904, -0.366, -2.014, 163.086, , , , , , , 179.747, -0.775, -126.925, -78.300, 13.100, -69.807, 20.44, 0.00641, 0.45914, -0.88828, -0.00119, 405, 100,
 19:44:29.651,e8:da:bf:c6:3e:4f, 2015-01-01 01:02:29.040, -0.415, -0.348, -0.871, 0.732, -1.16, 166.626, , , , , , , 179.769, -0.764, -128.584, -78.300, 13.100, -69.807, 20.44, 0.00641, 0.45914, -0.88828, -0.00119, 405, 100,
 19:44:29.651,e8:da:bf:c6:3e:4f, 2015-01-01 01:02:29.040, -0.327, -0.373, -0.991, 0.061, 0.427, 175.598, , , , , , , 179.791, -0.769, -130.292, -78.300, 13.100, -69.807, 20.44, 0.00641, 0.45914, -0.88828, -0.00119, 405, 100,
 19:44:29.652,e8:da:bf:c6:3e:4f, 2015-01-01 01:02:29.040, -0.104, -0.396, -1.071, -1.099, 1.221, 182.434, , , , , , , 179.808, -0.786, -132.1, -78.300, 13.100, -69.807, 20.44, 0.00641, 0.45914, -0.88828, -0.00119, 405, 100,
 19:44:29.652,e8:da:bf:c6:3e:4f, 2015-01-01 01:02:29.040, 0.036, -0.408, -1.046, -1.709, 0.549, 181.946, , , , , , , 179.808, -0.807, -133.923, -78.300, 13.100, -69.807, 20.44, 0.00641, 0.45914, -0.88828, -0.00119, 405, 100,
 19:44:29.652,e8:da:bf:c6:3e:4f, 2015-01-01 01:02:29.040, 0.085, -0.413, -0.967, -1.099, -0.732, 181.091, , , , , , , 179.813, -0.807, -135.742, -78.300, 13.100, -69.807, 20.44, 0.00641, 0.45914, -0.88828, -0.00119, 405, 100,
 19:44:29.652,e8:da:bf:c6:3e:4f, 2015-01-01 01:02:29.040, 0.079, -0.406, -0.929, -0.305, -1.221, 179.749, , , , , , , 179.83, -0.807, -137.549, -78.300, 13.100, -69.807, 20.44, 0.00641, 0.45914, -0.88828, -0.00119, 405, 100,
 19:44:29.652,e8:da:bf:c6:3e:4f, 2015-01-01 01:02:29.040, 0.069, -0.394, -0.959, -0.488, -0.977, 179.138, , , , , , , 179.846, -0.802, -139.345, -78.300, 13.100, -69.807, 20.44, 0.00641, 0.45914, -0.88828, -0.00119, 405, 100,
 19:44:29.652,e8:da:bf:c6:3e:4f, 2015-01-01 01:02:29.040, 0.075, -0.386, -0.982, -0.549, -1.038, 178.711, , , , , , , 179.857, -0.802, -141.136, -78.300, 13.100, -69.807, 20.44, 0.00641, 0.45914, -0.88828, -0.00119, 405, 100,
 19:44:29.652,e8:da:bf:c6:3e:4f, 2015-01-01 01:02:29.040, 0.08, -0.387, -0.981, -0.488, -1.16, 177.368, , , , , , , 179.874, -0.791, -142.921, -78.300, 13.100, -69.807, 20.44, 0.00641, 0.45914, -0.88828, -0.00119, 405, 100,
 19:44:29.652,e8:da:bf:c6:3e:4f, 2015-01-01 01:02:29.040, 0.059, -0.392, -0.982, -0.305, -1.282, 175.964, , , , , , , 179.885, -0.786, -144.69, -78.300, 13.100, -69.807, 20.44, 0.00641, 0.45914, -0.88828, -0.00119, 405, 100,
 19:44:29.652,e8:da:bf:c6:3e:4f, 2015-01-01 01:02:29.040, 0.012, -0.395, -1.005, -0.549, -1.892, 174.988, , , , , , , 179.901, -0.775, -146.442, -78.300, 13.100, -69.807, 20.44, 0.00641, 0.45914, -0.88828, -0.00119, 405, 100,
 19:44:29.653,e8:da:bf:c6:3e:4f, 2015-01-01 01:02:29.040, -0.067, -0.394, -1.009, -0.854, -2.075, 174.316, , , , , , , 179.912, -0.758, -148.189, -78.300, 13.100, -69.807, 20.44, 0.00641, 0.45914, -0.88828, -0.00119, 405, 100,
 19:44:29.766,e8:da:bf:c6:3e:4f, 2015-01-01 01:02:29.040, -0.146, -0.392, -0.984, -0.793, -1.709, 175.659, , , , , , , 179.923, -0.742, -149.941, -78.300, 13.100, -69.807, 20.44, 0.00641, 0.45914, -0.88828, -0.00119, 405, 100,
 19:44:29.767,e8:da:bf:c6:3e:4f, 2015-01-01 01:02:29.040, -0.173, -0.396, -0.956, -0.366, -2.197, 179.443, , , , , , , 179.929, -0.731, -151.721, -78.300, 13.100, -69.807, 20.44, 0.00641, 0.45914, -0.88828, -0.00119, 405, 100,
 19:44:29.767,e8:da:bf:c6:3e:4f, 2015-01-01 01:02:29.040, -0.171, -0.41, -0.959, -0.305, -0.916, 182.312, , , , , , , 179.945, -0.714, -153.534, -78.300, 13.100, -69.807, 20.44, 0.00641, 0.45914, -0.88828, -0.00119, 405, 100,
 19:44:29.767,e8:da:bf:c6:3e:4f, 2015-01-01 01:02:29.040, -0.067, -0.431, -0.981, -0.366, 0.549, 186.768, , , , , , , 179.962, -0.72, -155.385, -78.300, 13.100, -69.807, 20.44, 0.00641, 0.45914, -0.88828, -0.00119, 405, 100,
 19:44:29.794,e8:da:bf:c6:3e:4f, 2015-01-01 01:02:29.040, 0.053, -0.445, -1.013, -0.671, 0, 189.331, , , , , , , 179.973, -0.725, -157.269, -78.300, 13.100, -69.807, 20.44, 0.00641, 0.45914, -0.88828, -0.00119, 405, 100,
